meta,sender,sender_type,sender_id,Order,,ended_on,duration,time_run,time_render,time_show,time_end,time_commit,timestamp,time_switch,openLabId,type,task,project,status,code,confirmationCode,participant_L1,university_level,age,gender,gender_other,try-out_answer_L2,try-out_answer_L1,beach1_answer_L2,beach1_answer_L1,street1_answer_L2,street1_answer_L1,farm1_answer_L2,farm1_answer_L1,beach2_answer_L2,beach2_answer_L1,street2_answer_L2,street2_answer_L1,farm2_answer_L2,farm2_answer_L1,park1_answer_L2,park1_answer_L1,park2_answer_L2,park2_answer_L1
"{""labjs_version"":""20.2.4"",""labjs_build"":{""flavor"":""production"",""commit"":""f5b4a49f956347addd546a832a3327688c2c0fef""},""location"":""https://open-lab.online/test/klassikaal_3/6565d2a4fa275e2b7bded202"",""userAgent"":""Mozilla/5.0 (X11; CrOS x86_64 14541.0.0) AppleWebKit/537.36 (KHTML, like Gecko) Chrome/118.0.0.0 Safari/537.36"",""platform"":""Linux x86_64"",""language"":""nl"",""locale"":""nl"",""timeZone"":""Europe/Brussels"",""timezoneOffset"":-60,""screen_width"":1920,""screen_height"":1080,""scroll_width"":1920,""scroll_height"":876,""window_innerWidth"":1920,""window_innerHeight"":924,""devicePixelRatio"":1}",ID,html.Page,0,1,,form submission,4040.319999999255,1084,1038.574,1071.88,5112.199999999255,5112.9000000003725,2023-11-28T14:42:42.726Z,5117.084,zoAVLzhL0k,full,klassikaal_3,652fe10cdc68ac1c61cf9cec,participant,L,415473,,,,,,,,,,,,,,,,,,,,,,,
,language,html.Page,1,,,form submission,10431.916000000001,5113.299999998882,5100.432,5117.084,15549,15549.400000000373,2023-11-28T14:42:53.162Z,15550.272,zoAVLzhL0k,full,klassikaal_3,652fe10cdc68ac1c61cf9cec,participant,L,,Nederlands,BA,,,,,,,,,,,,,,,,,,,,,
,age-gender,html.Page,2,,,form submission,9149.427999999254,15549.5,15533.62,15550.272,24699.699999999255,24700.299999998882,2023-11-28T14:43:02.313Z,24699.519,zoAVLzhL0k,full,klassikaal_3,652fe10cdc68ac1c61cf9cec,participant,L,,,,19,v,,,,,,,,,,,,,,,,,,,
,prepare,html.Page,3_0,,,form submission,116928.481,24700.699999999255,24682.867,24699.519,141628,141628.5,2023-11-28T14:44:59.241Z,141637.392,zoAVLzhL0k,full,klassikaal_3,652fe10cdc68ac1c61cf9cec,participant,L,,,,,,,,,,,,,,,,,,,,,,,,
,try-out-image,html.Page,3_1,,,form submission,17997.207999999635,141628.69999999925,141620.74,141637.392,159634.59999999963,159635.09999999963,2023-11-28T14:45:17.248Z,159647.787,zoAVLzhL0k,full,klassikaal_3,652fe10cdc68ac1c61cf9cec,participant,L,,,,,,,de 2 eenden,,,,,,,,,,,,,,,,,
,answer,html.Page,3_2,,,form submission,3156.0129999988712,159635.40000000037,159631.135,159647.787,162803.79999999888,162804.09999999963,2023-11-28T14:45:20.417Z,162811.663,zoAVLzhL0k,full,klassikaal_3,652fe10cdc68ac1c61cf9cec,participant,L,,,,,,,,,,,,,,,,,,,,,,,,
,try-out,flow.Sequence,3,,,completion,138104.28099999888,24700.699999999255,24682.867,24699.519,162803.79999999888,162807.09999999963,2023-11-28T14:45:20.420Z,162811.663,zoAVLzhL0k,full,klassikaal_3,652fe10cdc68ac1c61cf9cec,participant,L,,,,,,,,,,,,,,,,,,,,,,,,
,prepare,html.Page,4_0,,,form submission,58888.13699999888,162807.40000000037,162795.011,162811.663,221699.79999999888,221700.09999999963,2023-11-28T14:46:19.313Z,221715.31,zoAVLzhL0k,full,klassikaal_3,652fe10cdc68ac1c61cf9cec,participant,L,,,,,,,,,,,,,,,,,,,,,,,,
,beach1-image,html.Page,4_1,,,form submission,5587.690000000002,221700.40000000037,221698.658,221715.31,227303,227303.5,2023-11-28T14:46:24.916Z,227317.425,zoAVLzhL0k,full,klassikaal_3,652fe10cdc68ac1c61cf9cec,participant,L,,,,,,,,,vissende man,,,,,,,,,,,,,,,
,answer,html.Page,4_2,,,form submission,7935.075000000012,227303.90000000037,227300.773,227317.425,235252.5,235252.90000000037,2023-11-28T14:46:32.866Z,235256.271,zoAVLzhL0k,full,klassikaal_3,652fe10cdc68ac1c61cf9cec,participant,L,,,,,,,,,,,,,,,,,,,,,,,,
,beach1,flow.Sequence,4,,,completion,72440.837,162807.29999999888,162795.011,162811.663,235252.5,235253.29999999888,2023-11-28T14:46:32.866Z,235256.271,zoAVLzhL0k,full,klassikaal_3,652fe10cdc68ac1c61cf9cec,participant,L,,,,,,,,,,,,,,,,,,,,,,,,
,prepare,html.Page,5_0,,,form submission,32599.129000000365,235253.40000000037,235239.619,235256.271,267855.4000000004,267855.7999999989,2023-11-28T14:47:05.468Z,267865.235,zoAVLzhL0k,full,klassikaal_3,652fe10cdc68ac1c61cf9cec,participant,L,,,,,,,,,,,,,,,,,,,,,,,,
,street1-image,html.Page,5_1,,,form submission,10113.964999999269,267855.9000000004,267848.583,267865.235,277979.19999999925,277979.69999999925,2023-11-28T14:47:15.592Z,277992.869,zoAVLzhL0k,full,klassikaal_3,652fe10cdc68ac1c61cf9cec,participant,L,,,,,,,,,,,luifel met witte en rode strepen,,,,,,,,,,,,,
,answer,html.Page,5_2,,,form submission,49923.630999999994,277979.9000000004,277976.207,277992.869,327916.5,327916.69999999925,2023-11-28T14:48:05.529Z,327921.384,zoAVLzhL0k,full,klassikaal_3,652fe10cdc68ac1c61cf9cec,participant,L,,,,,,,,,,,,,,,,,,,,,,,,
,street1,flow.Sequence,5,,,completion,92660.22899999999,235253.40000000037,235239.619,235256.271,327916.5,327917,2023-11-28T14:48:05.530Z,327921.384,zoAVLzhL0k,full,klassikaal_3,652fe10cdc68ac1c61cf9cec,participant,L,,,,,,,,,,,,,,,,,,,,,,,,
,prepare,html.Page,6_0,,,form submission,545.2159999996074,327917.19999999925,327904.732,327921.384,328466.5999999996,328466.9000000004,2023-11-28T14:48:06.079Z,328470.909,zoAVLzhL0k,full,klassikaal_3,652fe10cdc68ac1c61cf9cec,participant,L,,,,,,,,,,,,,,,,,,,,,,,,
,farm1-image,html.Page,6_1,,,form submission,5150.890999998897,328467,328454.257,328470.909,333621.7999999989,333622.19999999925,2023-11-28T14:48:11.235Z,333628.392,zoAVLzhL0k,full,klassikaal_3,652fe10cdc68ac1c61cf9cec,participant,L,,,,,,,,,,,,,kettingzaag,,,,,,,,,,,
,answer,html.Page,6_2,,,form submission,1414.6080000000075,333622.2999999989,333611.74,333628.392,335043,335043.4000000004,2023-11-28T14:48:12.656Z,335043.813,zoAVLzhL0k,full,klassikaal_3,652fe10cdc68ac1c61cf9cec,participant,L,,,,,,,,,,,,,,,,,,,,,,,,
,farm1,flow.Sequence,6,,,completion,7121.61599999998,327917.0999999996,327904.732,327921.384,335043,335043.5999999996,2023-11-28T14:48:12.656Z,335043.813,zoAVLzhL0k,full,klassikaal_3,652fe10cdc68ac1c61cf9cec,participant,L,,,,,,,,,,,,,,,,,,,,,,,,
,prepare,html.Page,7_0,,,form submission,50032.686999999976,335043.69999999925,335027.161,335043.813,385076.5,385076.69999999925,2023-11-28T14:49:02.689Z,385077.247,zoAVLzhL0k,full,klassikaal_3,652fe10cdc68ac1c61cf9cec,participant,L,,,,,,,,,,,,,,,,,,,,,,,,
,beach2-image,html.Page,7_1,,,form submission,11787.052999998908,385076.9000000004,385060.595,385077.247,396864.2999999989,396864.69999999925,2023-11-28T14:49:14.477Z,396863.924,zoAVLzhL0k,full,klassikaal_3,652fe10cdc68ac1c61cf9cec,participant,L,,,,,,,,,,,,,,,niemand duwt de auto uit het zand,,,,,,,,,
,answer,html.Page,7_2,,,form submission,1462.3759999988833,396865,396847.272,396863.924,398326.2999999989,398326.5999999996,2023-11-28T14:49:15.939Z,398329.723,zoAVLzhL0k,full,klassikaal_3,652fe10cdc68ac1c61cf9cec,participant,L,,,,,,,,,,,,,,,,,,,,,,,,
,beach2,flow.Sequence,7,,,completion,63282.48699999886,335043.5999999996,335027.161,335043.813,398326.2999999989,398326.9000000004,2023-11-28T14:49:15.940Z,398329.723,zoAVLzhL0k,full,klassikaal_3,652fe10cdc68ac1c61cf9cec,participant,L,,,,,,,,,,,,,,,,,,,,,,,,
,prepare,html.Page,8_0,,,form submission,43325.576999998884,398327.19999999925,398313.071,398329.723,441655.2999999989,441655.5,2023-11-28T14:49:59.268Z,441667.51,zoAVLzhL0k,full,klassikaal_3,652fe10cdc68ac1c61cf9cec,participant,L,,,,,,,,,,,,,,,,,,,,,,,,
,street2-image,html.Page,8_1,,,form submission,18277.189999999246,441655.69999999925,441650.858,441667.51,459944.69999999925,459945.2999999989,2023-11-28T14:50:17.558Z,459951.665,zoAVLzhL0k,full,klassikaal_3,652fe10cdc68ac1c61cf9cec,participant,L,,,,,,,,,,,,,,,,,de rode strik bij een van de beren in de speelgoedwinkel,,,,,,,
,answer,html.Page,8_2,,,form submission,2418.2350000003935,459945.5,459935.013,459951.665,462369.9000000004,462370.19999999925,2023-11-28T14:50:19.983Z,462376.464,zoAVLzhL0k,full,klassikaal_3,652fe10cdc68ac1c61cf9cec,participant,L,,,,,,,,,,,,,,,,,,,,,,,,
,street2,flow.Sequence,8,,,completion,64040.177000000374,398327.0999999996,398313.071,398329.723,462369.9000000004,462370.4000000004,2023-11-28T14:50:19.983Z,462376.464,zoAVLzhL0k,full,klassikaal_3,652fe10cdc68ac1c61cf9cec,participant,L,,,,,,,,,,,,,,,,,,,,,,,,
,prepare,html.Page,9_0,,,form submission,41533.436000000394,462370.5999999996,462359.812,462376.464,503909.9000000004,503910.2999999989,2023-11-28T14:51:01.523Z,503914.127,zoAVLzhL0k,full,klassikaal_3,652fe10cdc68ac1c61cf9cec,participant,L,,,,,,,,,,,,,,,,,,,,,,,,
,farm2-image,html.Page,9_1,,,form submission,8452.972999999649,503910.4000000004,503897.475,503914.127,512367.0999999996,512367.5999999996,2023-11-28T14:51:09.980Z,512374.474,zoAVLzhL0k,full,klassikaal_3,652fe10cdc68ac1c61cf9cec,participant,L,,,,,,,,,,,,,,,,,,,de imker is niet in paniek,,,,,
,answer,html.Page,9_2,,,form submission,2083.325999998895,512367.69999999925,512357.822,512374.474,514457.7999999989,514457.9000000004,2023-11-28T14:51:12.070Z,514466.178,zoAVLzhL0k,full,klassikaal_3,652fe10cdc68ac1c61cf9cec,participant,L,,,,,,,,,,,,,,,,,,,,,,,,
,farm2,flow.Sequence,9,,,completion,52081.335999998904,462370.5,462359.812,462376.464,514457.7999999989,514457.9000000004,2023-11-28T14:51:12.071Z,514466.178,zoAVLzhL0k,full,klassikaal_3,652fe10cdc68ac1c61cf9cec,participant,L,,,,,,,,,,,,,,,,,,,,,,,,
,prepare,html.Page,10_0,,,form submission,40942.92199999961,514458,514449.526,514466.178,555409.0999999996,555409.4000000004,2023-11-28T14:51:53.022Z,555414.669,zoAVLzhL0k,full,klassikaal_3,652fe10cdc68ac1c61cf9cec,participant,L,,,,,,,,,,,,,,,,,,,,,,,,
,park1-image,html.Page,10_1,,,form submission,13284.130999998888,555409.5999999996,555398.017,555414.669,568698.7999999989,568699.1999999993,2023-11-28T14:52:06.312Z,568703.316,zoAVLzhL0k,full,klassikaal_3,652fe10cdc68ac1c61cf9cec,participant,L,,,,,,,,,,,,,,,,,,,,,er fietst geen kindje achter de moeder,,,
,answer,html.Page,10_2,,,form submission,6994.584000000381,568699.4000000004,568686.664,568703.316,575697.9000000004,575698.1999999993,2023-11-28T14:52:13.311Z,575701.212,zoAVLzhL0k,full,klassikaal_3,652fe10cdc68ac1c61cf9cec,participant,L,,,,,,,,,,,,,,,,,,,,,,,,
,park1,flow.Sequence,10,,,completion,61231.72200000036,514458,514449.526,514466.178,575697.9000000004,575698.4000000004,2023-11-28T14:52:13.311Z,575701.212,zoAVLzhL0k,full,klassikaal_3,652fe10cdc68ac1c61cf9cec,participant,L,,,,,,,,,,,,,,,,,,,,,,,,
,prepare,html.Page,11_0,,,form submission,37709.688000000315,575698.5,575684.56,575701.212,613410.9000000004,613411.1999999993,2023-11-28T14:52:51.024Z,613425.445,zoAVLzhL0k,full,klassikaal_3,652fe10cdc68ac1c61cf9cec,participant,L,,,,,,,,,,,,,,,,,,,,,,,,
,park2-image,html.Page,11_1,,,form submission,13232.055000000051,613411.4000000004,613408.793,613425.445,626657.5,626657.9000000004,2023-11-28T14:53:04.270Z,626664.147,zoAVLzhL0k,full,klassikaal_3,652fe10cdc68ac1c61cf9cec,participant,L,,,,,,,,,,,,,,,,,,,,,,,er zijn geen witte bloemen wel gele,
,answer,html.Page,11_2,,,form submission,2180.9529999996303,626658,626647.495,626664.147,628845.0999999996,628845.4000000004,2023-11-28T14:53:06.458Z,628857.674,zoAVLzhL0k,full,klassikaal_3,652fe10cdc68ac1c61cf9cec,participant,L,,,,,,,,,,,,,,,,,,,,,,,,
,park2,flow.Sequence,11,,,completion,53143.88799999957,575698.5,575684.56,575701.212,628845.0999999996,628845.6999999993,2023-11-28T14:53:06.458Z,628857.674,zoAVLzhL0k,full,klassikaal_3,652fe10cdc68ac1c61cf9cec,participant,L,,,,,,,,,,,,,,,,,,,,,,,,
,bedankt,html.Page,12,,,timeout,2998.871000000043,628845.7999999989,628841.022,628857.674,631839.893,631841.4000000004,2023-11-28T14:53:09.454Z,631856.545,zoAVLzhL0k,full,klassikaal_3,652fe10cdc68ac1c61cf9cec,participant,L,,,,,,,,,,,,,,,,,,,,,,,,
,root,flow.Sequence,,,,completion,630768.013,1083.9000000003725,1038.574,1071.88,631839.893,631842,2023-11-28T14:53:09.455Z,631856.545,zoAVLzhL0k,full,klassikaal_3,652fe10cdc68ac1c61cf9cec,participant,L,,,,,,,,,,,,,,,,,,,,,,,,