meta,sender,sender_type,sender_id,Order,,ended_on,duration,time_run,time_render,time_show,time_end,time_commit,timestamp,time_switch,openLabId,type,task,project,status,code,confirmationCode,participant_L1,university_level,age,gender,gender_other,try-out_answer_L2,try-out_answer_L1,beach1_answer_L2,beach1_answer_L1,street1_answer_L2,street1_answer_L1,farm1_answer_L2,farm1_answer_L1,beach2_answer_L2,beach2_answer_L1,street2_answer_L2,street2_answer_L1,farm2_answer_L2,farm2_answer_L1,park1_answer_L2,park1_answer_L1,park2_answer_L2,park2_answer_L1
"{""labjs_version"":""20.2.4"",""labjs_build"":{""flavor"":""production"",""commit"":""f5b4a49f956347addd546a832a3327688c2c0fef""},""location"":""https://open-lab.online/test/klassikaal_3/6565fc71fa275e2b7bded489"",""userAgent"":""Mozilla/5.0 (Windows NT 10.0; Win64; x64) AppleWebKit/537.36 (KHTML, like Gecko) Chrome/119.0.0.0 Safari/537.36 Edg/119.0.0.0"",""platform"":""Win32"",""language"":""nl"",""locale"":""nl-BE"",""timeZone"":""Europe/Brussels"",""timezoneOffset"":-60,""screen_width"":1366,""screen_height"":768,""scroll_width"":1318,""scroll_height"":598,""window_innerWidth"":1318,""window_innerHeight"":646,""devicePixelRatio"":1}",ID,html.Page,0,1,,form submission,5178.769999976158,1468.5,1372.246,1472.13,6650.899999976158,6651.800000011921,2023-11-28T14:43:04.035Z,6670.536,YfPrONTu00,full,klassikaal_3,652fe10cdc68ac1c61cf9cec,participant,Willy,545894,,,,,,,,,,,,,,,,,,,,,,,
,language,html.Page,1,,,form submission,47485.964,6652.399999976158,6637.126,6670.536,54156.5,54157.09999996424,2023-11-28T14:43:51.541Z,54171.478,YfPrONTu00,full,klassikaal_3,652fe10cdc68ac1c61cf9cec,participant,Willy,,Nederlands,BA,,,,,,,,,,,,,,,,,,,,,
,age-gender,html.Page,2,,,form submission,14092.221999988076,54157.5,54138.284,54171.478,68263.69999998808,68264.09999996424,2023-11-28T14:44:05.648Z,68283.076,YfPrONTu00,full,klassikaal_3,652fe10cdc68ac1c61cf9cec,participant,Willy,,,,19,na,,,,,,,,,,,,,,,,,,,
,prepare,html.Page,3_0,,,form submission,54172.32399997616,68264.30000001192,68250.333,68283.076,122455.39999997616,122456,2023-11-28T14:44:59.839Z,122481.91,YfPrONTu00,full,klassikaal_3,652fe10cdc68ac1c61cf9cec,participant,Willy,,,,,,,,,,,,,,,,,,,,,,,,
,try-out-image,html.Page,3_1,,,form submission,16847.489999976155,122456.30000001192,122449.186,122481.91,139329.39999997616,139329.80000001192,2023-11-28T14:45:16.713Z,139359.56,YfPrONTu00,full,klassikaal_3,652fe10cdc68ac1c61cf9cec,participant,Willy,,,,,,,De 2 eenden,,,,,,,,,,,,,,,,,
,answer,html.Page,3_2,,,form submission,59042.44,139330,139326.419,139359.56,198402,198402.30000001192,2023-11-28T14:46:15.786Z,198424.002,YfPrONTu00,full,klassikaal_3,652fe10cdc68ac1c61cf9cec,participant,Willy,,,,,,,,,,,,,,,,,,,,,,,,
,try-out,flow.Sequence,3,,,completion,130118.924,68264.30000001192,68250.333,68283.076,198402,198405.59999996424,2023-11-28T14:46:15.790Z,198424.002,YfPrONTu00,full,klassikaal_3,652fe10cdc68ac1c61cf9cec,participant,Willy,,,,,,,,,,,,,,,,,,,,,,,,
,prepare,html.Page,4_0,,,form submission,4100.0979999642295,198406,198390.641,198424.002,202524.09999996424,202524.39999997616,2023-11-28T14:46:19.908Z,202555.701,YfPrONTu00,full,klassikaal_3,652fe10cdc68ac1c61cf9cec,participant,Willy,,,,,,,,,,,,,,,,,,,,,,,,
,beach1-image,html.Page,4_1,,,form submission,19274.198999976157,202524.59999996424,202522.375,202555.701,221829.89999997616,221830.39999997616,2023-11-28T14:46:39.214Z,221849.073,YfPrONTu00,full,klassikaal_3,652fe10cdc68ac1c61cf9cec,participant,Willy,,,,,,,,,visser,,,,,,,,,,,,,,,
,answer,html.Page,4_2,,,form submission,4989.126999988075,221830.80000001192,221816.382,221849.073,226838.19999998808,226838.80000001192,2023-11-28T14:46:44.223Z,226864.244,YfPrONTu00,full,klassikaal_3,652fe10cdc68ac1c61cf9cec,participant,Willy,,,,,,,,,,,,,,,,,,,,,,,,
,beach1,flow.Sequence,4,,,completion,28414.19799998807,198405.80000001192,198390.641,198424.002,226838.19999998808,226839.30000001192,2023-11-28T14:46:44.223Z,226864.244,YfPrONTu00,full,klassikaal_3,652fe10cdc68ac1c61cf9cec,participant,Willy,,,,,,,,,,,,,,,,,,,,,,,,
,prepare,html.Page,5_0,,,form submission,24440.755999999994,226839.59999996424,226831.114,226864.244,251305,251305.19999998808,2023-11-28T14:47:08.689Z,251322.813,YfPrONTu00,full,klassikaal_3,652fe10cdc68ac1c61cf9cec,participant,Willy,,,,,,,,,,,,,,,,,,,,,,,,
,street1-image,html.Page,5_1,,,form submission,18491.586999976163,251305.39999997616,251289,251322.813,269814.39999997616,269814.59999996424,2023-11-28T14:47:27.198Z,269833.011,YfPrONTu00,full,klassikaal_3,652fe10cdc68ac1c61cf9cec,participant,Willy,,,,,,,,,,,roderuiten bij het cafe,,,,,,,,,,,,,
,answer,html.Page,5_2,,,form submission,39207.38899997616,269814.6999999881,269799.977,269833.011,309040.39999997616,309040.89999997616,2023-11-28T14:48:06.425Z,309070.131,YfPrONTu00,full,klassikaal_3,652fe10cdc68ac1c61cf9cec,participant,Willy,,,,,,,,,,,,,,,,,,,,,,,,
,street1,flow.Sequence,5,,,completion,82176.15599997615,226839.5,226831.114,226864.244,309040.39999997616,309041.3000000119,2023-11-28T14:48:06.425Z,309070.131,YfPrONTu00,full,klassikaal_3,652fe10cdc68ac1c61cf9cec,participant,Willy,,,,,,,,,,,,,,,,,,,,,,,,
,prepare,html.Page,6_0,,,form submission,1586.369000000006,309041.39999997616,309037.216,309070.131,310656.5,310656.6999999881,2023-11-28T14:48:08.041Z,310686.423,YfPrONTu00,full,klassikaal_3,652fe10cdc68ac1c61cf9cec,participant,Willy,,,,,,,,,,,,,,,,,,,,,,,,
,farm1-image,html.Page,6_1,,,form submission,6165.877000011911,310656.89999997616,310652.779,310686.423,316852.3000000119,316852.6999999881,2023-11-28T14:48:14.237Z,316901.035,YfPrONTu00,full,klassikaal_3,652fe10cdc68ac1c61cf9cec,participant,Willy,,,,,,,,,,,,,Kettingzaag,,,,,,,,,,,
,answer,html.Page,6_2,,,form submission,48024.664999988105,316853,316867.901,316901.035,364925.6999999881,364926.09999996424,2023-11-28T14:49:02.310Z,364951.742,YfPrONTu00,full,klassikaal_3,652fe10cdc68ac1c61cf9cec,participant,Willy,,,,,,,,,,,,,,,,,,,,,,,,
,farm1,flow.Sequence,6,,,completion,55855.568999988085,309041.39999997616,309037.216,309070.131,364925.6999999881,364926.3000000119,2023-11-28T14:49:02.310Z,364951.742,YfPrONTu00,full,klassikaal_3,652fe10cdc68ac1c61cf9cec,participant,Willy,,,,,,,,,,,,,,,,,,,,,,,,
,prepare,html.Page,7_0,,,form submission,1651.6579999761307,364926.5,364918.594,364951.742,366603.39999997616,366603.8000000119,2023-11-28T14:49:03.988Z,366634.599,YfPrONTu00,full,klassikaal_3,652fe10cdc68ac1c61cf9cec,participant,Willy,,,,,,,,,,,,,,,,,,,,,,,,
,beach2-image,html.Page,7_1,,,form submission,9021.00099996425,366604,366601.198,366634.599,375655.59999996424,375656.09999996424,2023-11-28T14:49:13.040Z,375681.854,YfPrONTu00,full,klassikaal_3,652fe10cdc68ac1c61cf9cec,participant,Willy,,,,,,,,,,,,,,,2 mannen die auto duwen,,,,,,,,,
,answer,html.Page,7_2,,,form submission,22493.745999964245,375656.39999997616,375647.949,375681.854,398175.59999996424,398176,2023-11-28T14:49:35.560Z,398207.172,YfPrONTu00,full,klassikaal_3,652fe10cdc68ac1c61cf9cec,participant,Willy,,,,,,,,,,,,,,,,,,,,,,,,
,beach2,flow.Sequence,7,,,completion,33223.85799996421,364926.5,364918.594,364951.742,398175.59999996424,398176.39999997616,2023-11-28T14:49:35.560Z,398207.172,YfPrONTu00,full,klassikaal_3,652fe10cdc68ac1c61cf9cec,participant,Willy,,,,,,,,,,,,,,,,,,,,,,,,
,prepare,html.Page,8_0,,,form submission,28781.927999964217,398176.59999996424,398174.192,398207.172,426989.09999996424,426989.1999999881,2023-11-28T14:50:04.373Z,427014.424,YfPrONTu00,full,klassikaal_3,652fe10cdc68ac1c61cf9cec,participant,Willy,,,,,,,,,,,,,,,,,,,,,,,,
,street2-image,html.Page,8_1,,,form submission,8397.77599998808,426989.39999997616,426981.257,427014.424,435412.1999999881,435412.5,2023-11-28T14:50:12.796Z,435444.763,YfPrONTu00,full,klassikaal_3,652fe10cdc68ac1c61cf9cec,participant,Willy,,,,,,,,,,,,,,,,,Rode strik bij beer,,,,,,,
,answer,html.Page,8_2,,,form submission,57736.23700000002,435412.59999996424,435411.413,435444.763,493181,493181.39999997616,2023-11-28T14:51:10.565Z,493209.099,YfPrONTu00,full,klassikaal_3,652fe10cdc68ac1c61cf9cec,participant,Willy,,,,,,,,,,,,,,,,,,,,,,,,
,street2,flow.Sequence,8,,,completion,94973.82799999998,398176.5,398174.192,398207.172,493181,493181.6999999881,2023-11-28T14:51:10.566Z,493209.099,YfPrONTu00,full,klassikaal_3,652fe10cdc68ac1c61cf9cec,participant,Willy,,,,,,,,,,,,,,,,,,,,,,,,
,prepare,html.Page,9_0,,,form submission,1371.4010000000126,493181.89999997616,493175.927,493209.099,494580.5,494580.6999999881,2023-11-28T14:51:11.965Z,494608.81,YfPrONTu00,full,klassikaal_3,652fe10cdc68ac1c61cf9cec,participant,Willy,,,,,,,,,,,,,,,,,,,,,,,,
,farm2-image,html.Page,9_1,,,form submission,11062.28999996424,494580.89999997616,494575.464,494608.81,505671.09999996424,505672.89999997616,2023-11-28T14:51:23.057Z,505689.065,YfPrONTu00,full,klassikaal_3,652fe10cdc68ac1c61cf9cec,participant,Willy,,,,,,,,,,,,,,,,,,,,,,,,
,answer,html.Page,9_2,,,form submission,10386.834999976156,505673.3000000119,505655.513,505689.065,516075.89999997616,516076.1999999881,2023-11-28T14:51:33.460Z,516102.131,YfPrONTu00,full,klassikaal_3,652fe10cdc68ac1c61cf9cec,participant,Willy,,,,,,,,,,,,,,,,,,,,,,,,
,farm2,flow.Sequence,9,,,completion,22866.80099997617,493181.8000000119,493175.927,493209.099,516075.89999997616,516076.5,2023-11-28T14:51:33.460Z,516102.131,YfPrONTu00,full,klassikaal_3,652fe10cdc68ac1c61cf9cec,participant,Willy,,,,,,,,,,,,,,,,,,,,,,,,
,prepare,html.Page,10_0,,,form submission,20646.369000000006,516076.59999996424,516068.013,516102.131,536748.5,536748.6999999881,2023-11-28T14:51:54.133Z,536778.171,YfPrONTu00,full,klassikaal_3,652fe10cdc68ac1c61cf9cec,participant,Willy,,,,,,,,,,,,,,,,,,,,,,,,
,park1-image,html.Page,10_1,,,form submission,9562.329000000027,536748.8999999762,536744.536,536778.171,546340.5,546340.6999999881,2023-11-28T14:52:03.725Z,546357.954,YfPrONTu00,full,klassikaal_3,652fe10cdc68ac1c61cf9cec,participant,Willy,,,,,,,,,,,,,,,,,,,,,kindje op fiets,,,
,answer,html.Page,10_2,,,form submission,2231.545999999973,546340.8000000119,546324.604,546357.954,548589.5,548589.6999999881,2023-11-28T14:52:05.974Z,548607.246,YfPrONTu00,full,klassikaal_3,652fe10cdc68ac1c61cf9cec,participant,Willy,,,,,,,,,,,,,,,,,,,,,,,,
,park1,flow.Sequence,10,,,completion,32487.369000000006,516076.59999996424,516068.013,516102.131,548589.5,548589.8000000119,2023-11-28T14:52:05.974Z,548607.246,YfPrONTu00,full,klassikaal_3,652fe10cdc68ac1c61cf9cec,participant,Willy,,,,,,,,,,,,,,,,,,,,,,,,
,prepare,html.Page,11_0,,,form submission,3981.1539999761153,548589.8999999762,548574.558,548607.246,552588.3999999762,552588.8999999762,2023-11-28T14:52:09.973Z,552606.341,YfPrONTu00,full,klassikaal_3,652fe10cdc68ac1c61cf9cec,participant,Willy,,,,,,,,,,,,,,,,,,,,,,,,
,park2-image,html.Page,11_1,,,form submission,46070.358999988064,552589.0999999642,552573.147,552606.341,598676.6999999881,598677.0999999642,2023-11-28T14:52:56.061Z,598707.887,YfPrONTu00,full,klassikaal_3,652fe10cdc68ac1c61cf9cec,participant,Willy,,,,,,,,,,,,,,,,,,,,,,,witte bloemen,
,answer,html.Page,11_2,,,form submission,8971.812999988091,598677.3999999762,598674.051,598707.887,607679.6999999881,607680,2023-11-28T14:53:05.064Z,607704.92,YfPrONTu00,full,klassikaal_3,652fe10cdc68ac1c61cf9cec,participant,Willy,,,,,,,,,,,,,,,,,,,,,,,,
,park2,flow.Sequence,11,,,completion,59072.453999988036,548589.8999999762,548574.558,548607.246,607679.6999999881,607680.3000000119,2023-11-28T14:53:05.064Z,607704.92,YfPrONTu00,full,klassikaal_3,652fe10cdc68ac1c61cf9cec,participant,Willy,,,,,,,,,,,,,,,,,,,,,,,,
,bedankt,html.Page,12,,,timeout,2998.6609999999637,607680.3999999762,607671.605,607704.92,610670.89,610673.5,2023-11-28T14:53:08.057Z,610703.581,YfPrONTu00,full,klassikaal_3,652fe10cdc68ac1c61cf9cec,participant,Willy,,,,,,,,,,,,,,,,,,,,,,,,
,root,flow.Sequence,,,,completion,609198.76,1468.300000011921,1372.246,1472.13,610670.89,610674,2023-11-28T14:53:08.058Z,610703.581,YfPrONTu00,full,klassikaal_3,652fe10cdc68ac1c61cf9cec,participant,Willy,,,,,,,,,,,,,,,,,,,,,,,,