meta,sender,sender_type,sender_id,Order,,ended_on,duration,time_run,time_render,time_show,time_end,time_commit,timestamp,time_switch,openLabId,type,task,project,status,code,confirmationCode,participant_L1,university_level,age,gender,gender_other,try-out_answer_L2,try-out_answer_L1,beach1_answer_L2,beach1_answer_L1,street1_answer_L2,street1_answer_L1,farm1_answer_L2,farm1_answer_L1,beach2_answer_L2,beach2_answer_L1,street2_answer_L2,street2_answer_L1,farm2_answer_L2,farm2_answer_L1,park1_answer_L2,park1_answer_L1,park2_answer_L2,park2_answer_L1
"{""labjs_version"":""20.2.4"",""labjs_build"":{""flavor"":""production"",""commit"":""f5b4a49f956347addd546a832a3327688c2c0fef""},""location"":""https://open-lab.online/test/klassikaal_3/6565fc77fa275e2b7bded491"",""userAgent"":""Mozilla/5.0 (Windows NT 10.0; Win64; x64) AppleWebKit/537.36 (KHTML, like Gecko) Chrome/119.0.0.0 Safari/537.36"",""platform"":""Win32"",""language"":""es-ES"",""locale"":""nl"",""timeZone"":""Europe/Brussels"",""timezoneOffset"":-60,""screen_width"":1280,""screen_height"":720,""scroll_width"":1280,""scroll_height"":551,""window_innerWidth"":1280,""window_innerHeight"":551,""devicePixelRatio"":1.5}",ID,html.Page,0,1,,form submission,4939.023999928475,2072,1975.72,2075.676,7014.699999928474,7015.399999976158,2023-11-28T14:43:10.771Z,7024.106,MhI4BLKsK3,full,klassikaal_3,652fe10cdc68ac1c61cf9cec,participant,Ine,750079,,,,,,,,,,,,,,,,,,,,,,,
,language,html.Page,1,,,form submission,44141.29399997616,7015.799999952316,7007.905,7024.106,51165.39999997616,51165.799999952316,2023-11-28T14:43:54.922Z,51175.465,MhI4BLKsK3,full,klassikaal_3,652fe10cdc68ac1c61cf9cec,participant,Ine,,"Nederlands, Engels ",BA,,,,,,,,,,,,,,,,,,,,,
,age-gender,html.Page,2,,,form submission,11986.934999976162,51166.199999928474,51158.597,51175.465,63162.39999997616,63162.799999952316,2023-11-28T14:44:06.919Z,63171.088,MhI4BLKsK3,full,klassikaal_3,652fe10cdc68ac1c61cf9cec,participant,Ine,,,,20,v,,,,,,,,,,,,,,,,,,,
,prepare,html.Page,3_0,,,form submission,53226.71199995231,63163.09999990463,63153.5,63171.088,116397.79999995232,116398.19999992847,2023-11-28T14:45:00.154Z,116402.59,MhI4BLKsK3,full,klassikaal_3,652fe10cdc68ac1c61cf9cec,participant,Ine,,,,,,,,,,,,,,,,,,,,,,,,
,try-out-image,html.Page,3_1,,,form submission,10285.609999928478,116398.39999997616,116386.014,116402.59,126688.19999992847,126688.89999997616,2023-11-28T14:45:10.445Z,126698.996,MhI4BLKsK3,full,klassikaal_3,652fe10cdc68ac1c61cf9cec,participant,Ine,,,,,,,2 eenden,,,,,,,,,,,,,,,,,
,answer,html.Page,3_2,,,form submission,7884.303999952317,126689.19999992847,126678.883,126698.996,134583.29999995232,134584.19999992847,2023-11-28T14:45:18.340Z,134596.361,MhI4BLKsK3,full,klassikaal_3,652fe10cdc68ac1c61cf9cec,participant,Ine,,,,,,,,,,,,,,,,,,,,,,,,
,try-out,flow.Sequence,3,,,completion,71412.21199995231,63163.09999990463,63153.5,63171.088,134583.29999995232,134587.5,2023-11-28T14:45:18.343Z,134596.361,MhI4BLKsK3,full,klassikaal_3,652fe10cdc68ac1c61cf9cec,participant,Ine,,,,,,,,,,,,,,,,,,,,,,,,
,prepare,html.Page,4_0,,,form submission,55179.73899990463,134587.79999995232,134580.239,134596.361,189776.09999990463,189776.5,2023-11-28T14:46:13.532Z,189777.102,MhI4BLKsK3,full,klassikaal_3,652fe10cdc68ac1c61cf9cec,participant,Ine,,,,,,,,,,,,,,,,,,,,,,,,
,beach1-image,html.Page,4_1,,,form submission,32782.297999976145,189776.79999995232,189760.703,189777.102,222559.39999997616,222559.89999997616,2023-11-28T14:46:46.316Z,222565.942,MhI4BLKsK3,full,klassikaal_3,652fe10cdc68ac1c61cf9cec,participant,Ine,,,,,,,,,,,,,,,,,,,,,,,,
,answer,html.Page,4_2,,,form submission,22142.957999976148,222560.29999995232,222550.11,222565.942,244708.89999997616,244709.5,2023-11-28T14:47:08.465Z,244724.65,MhI4BLKsK3,full,klassikaal_3,652fe10cdc68ac1c61cf9cec,participant,Ine,,,,,,,,,,,,,,,,,,,,,,,,
,beach1,flow.Sequence,4,,,completion,110112.53899997615,134587.69999992847,134580.239,134596.361,244708.89999997616,244709.89999997616,2023-11-28T14:47:08.466Z,244724.65,MhI4BLKsK3,full,klassikaal_3,652fe10cdc68ac1c61cf9cec,participant,Ine,,,,,,,,,,,,,,,,,,,,,,,,
,prepare,html.Page,5_0,,,form submission,3114.350000000006,244710.19999992847,244706.383,244724.65,247839,247839.39999997616,2023-11-28T14:47:11.595Z,247840.255,MhI4BLKsK3,full,klassikaal_3,652fe10cdc68ac1c61cf9cec,participant,Ine,,,,,,,,,,,,,,,,,,,,,,,,
,street1-image,html.Page,5_1,,,form submission,9880.844999904628,247839.5,247823.672,247840.255,257721.09999990463,257721.5,2023-11-28T14:47:21.477Z,257736.92,MhI4BLKsK3,full,klassikaal_3,652fe10cdc68ac1c61cf9cec,participant,Ine,,,,,,,,,,,luifel met witte en rode strepen,,,,,,,,,,,,,
,answer,html.Page,5_2,,,form submission,5076.3799999523035,257721.79999995232,257720.182,257736.92,262813.2999999523,262813.6999999285,2023-11-28T14:47:26.569Z,262818.457,MhI4BLKsK3,full,klassikaal_3,652fe10cdc68ac1c61cf9cec,participant,Ine,,,,,,,,,,,,,,,,,,,,,,,,
,street1,flow.Sequence,5,,,completion,18088.649999952322,244710,244706.383,244724.65,262813.2999999523,262814,2023-11-28T14:47:26.570Z,262818.457,MhI4BLKsK3,full,klassikaal_3,652fe10cdc68ac1c61cf9cec,participant,Ine,,,,,,,,,,,,,,,,,,,,,,,,
,prepare,html.Page,6_0,,,form submission,36915.84299995232,262814.1999999285,262802.721,262818.457,299734.2999999523,299734.6999999285,2023-11-28T14:48:03.490Z,299738.951,MhI4BLKsK3,full,klassikaal_3,652fe10cdc68ac1c61cf9cec,participant,Ine,,,,,,,,,,,,,,,,,,,,,,,,
,farm1-image,html.Page,6_1,,,form submission,5884.848999952315,299734.7999999523,299723.787,299738.951,305623.7999999523,305624.1999999285,2023-11-28T14:48:09.380Z,305636.864,MhI4BLKsK3,full,klassikaal_3,652fe10cdc68ac1c61cf9cec,participant,Ine,,,,,,,,,,,,,De man zaagt niet,,,,,,,,,,,
,answer,html.Page,6_2,,,form submission,6476.135999999999,305624.2999999523,305620.315,305636.864,312113,312114,2023-11-28T14:48:15.870Z,312117.954,MhI4BLKsK3,full,klassikaal_3,652fe10cdc68ac1c61cf9cec,participant,Ine,,,,,,,,,,,,,,,,,,,,,,,,
,farm1,flow.Sequence,6,,,completion,49294.543000000005,262814.09999990463,262802.721,262818.457,312113,312114.6999999285,2023-11-28T14:48:15.871Z,312117.954,MhI4BLKsK3,full,klassikaal_3,652fe10cdc68ac1c61cf9cec,participant,Ine,,,,,,,,,,,,,,,,,,,,,,,,
,prepare,html.Page,7_0,,,form submission,46588.44599997613,312114.89999997616,312102.731,312117.954,358706.39999997616,358706.7999999523,2023-11-28T14:49:02.463Z,358718.477,MhI4BLKsK3,full,klassikaal_3,652fe10cdc68ac1c61cf9cec,participant,Ine,,,,,,,,,,,,,,,,,,,,,,,,
,beach2-image,html.Page,7_1,,,form submission,7783.0229999999865,358707.09999990463,358702.864,358718.477,366501.5,366502,2023-11-28T14:49:10.258Z,366515.675,MhI4BLKsK3,full,klassikaal_3,652fe10cdc68ac1c61cf9cec,participant,Ine,,,,,,,,,,,,,,,De mannen die de auto voortduwen,,,,,,,,,
,answer,html.Page,7_2,,,form submission,2941.72499997617,366502.1999999285,366498.982,366515.675,369457.39999997616,369458.59999990463,2023-11-28T14:49:13.215Z,369464.735,MhI4BLKsK3,full,klassikaal_3,652fe10cdc68ac1c61cf9cec,participant,Ine,,,,,,,,,,,,,,,,,,,,,,,,
,beach2,flow.Sequence,7,,,completion,57339.44599997613,312114.7999999523,312102.731,312117.954,369457.39999997616,369459,2023-11-28T14:49:13.215Z,369464.735,MhI4BLKsK3,full,klassikaal_3,652fe10cdc68ac1c61cf9cec,participant,Ine,,,,,,,,,,,,,,,,,,,,,,,,
,prepare,html.Page,8_0,,,form submission,47026.16499997617,369459.1999999285,369457.802,369464.735,416490.89999997616,416491.2999999523,2023-11-28T14:50:00.247Z,416498.399,MhI4BLKsK3,full,klassikaal_3,652fe10cdc68ac1c61cf9cec,participant,Ine,,,,,,,,,,,,,,,,,,,,,,,,
,street2-image,html.Page,8_1,,,form submission,9847.40099995234,416491.5,416483.913,416498.399,426345.7999999523,426346.5,2023-11-28T14:50:10.102Z,426361.759,MhI4BLKsK3,full,klassikaal_3,652fe10cdc68ac1c61cf9cec,participant,Ine,,,,,,,,,,,,,,,,,"Beer heeft geen grote rode strik ",,,,,,,
,answer,html.Page,8_2,,,form submission,4766.440999928454,426346.7999999523,426343.222,426361.759,431128.1999999285,431129.5,2023-11-28T14:50:14.885Z,431160.026,MhI4BLKsK3,full,klassikaal_3,652fe10cdc68ac1c61cf9cec,participant,Ine,,,,,,,,,,,,,,,,,,,,,,,,
,street2,flow.Sequence,8,,,completion,61663.46499992849,369459.09999990463,369457.802,369464.735,431128.1999999285,431129.89999997616,2023-11-28T14:50:14.886Z,431160.026,MhI4BLKsK3,full,klassikaal_3,652fe10cdc68ac1c61cf9cec,participant,Ine,,,,,,,,,,,,,,,,,,,,,,,,
,prepare,html.Page,9_0,,,form submission,39163.07399990462,431130.09999990463,431143.371,431160.026,470323.09999990463,470323.39999997616,2023-11-28T14:50:54.079Z,470329.708,MhI4BLKsK3,full,klassikaal_3,652fe10cdc68ac1c61cf9cec,participant,Ine,,,,,,,,,,,,,,,,,,,,,,,,
,farm2-image,html.Page,9_1,,,form submission,10113.99199992849,470323.59999990463,470313.14,470329.708,480443.6999999285,480444.1999999285,2023-11-28T14:51:04.200Z,480460.208,MhI4BLKsK3,full,klassikaal_3,652fe10cdc68ac1c61cf9cec,participant,Ine,,,,,,,,,,,,,,,,,,,"niet in paniek ",,,,,
,answer,html.Page,9_2,,,form submission,4394.891999904648,480444.39999997616,480426.528,480460.208,484855.09999990463,484855.5,2023-11-28T14:51:08.612Z,484857.983,MhI4BLKsK3,full,klassikaal_3,652fe10cdc68ac1c61cf9cec,participant,Ine,,,,,,,,,,,,,,,,,,,,,,,,
,farm2,flow.Sequence,9,,,completion,53695.07399990462,431130.09999990463,431143.371,431160.026,484855.09999990463,484855.6999999285,2023-11-28T14:51:08.612Z,484857.983,MhI4BLKsK3,full,klassikaal_3,652fe10cdc68ac1c61cf9cec,participant,Ine,,,,,,,,,,,,,,,,,,,,,,,,
,prepare,html.Page,10_0,,,form submission,44637.41699997615,484855.89999997616,484841.464,484857.983,529495.3999999762,529495.7999999523,2023-11-28T14:51:53.251Z,529509.212,MhI4BLKsK3,full,klassikaal_3,652fe10cdc68ac1c61cf9cec,participant,Ine,,,,,,,,,,,,,,,,,,,,,,,,
,park1-image,html.Page,10_1,,,form submission,6856.6879999761,529496.0999999046,529492.765,529509.212,536365.8999999762,536366.3999999762,2023-11-28T14:52:00.122Z,536373.404,MhI4BLKsK3,full,klassikaal_3,652fe10cdc68ac1c61cf9cec,participant,Ine,,,,,,,,,,,,,,,,,,,,,"kind op fiets ",,,
,answer,html.Page,10_2,,,form submission,3670.695999904652,536366.5,536356.859,536373.404,540044.0999999046,540044.3999999762,2023-11-28T14:52:03.800Z,540056.467,MhI4BLKsK3,full,klassikaal_3,652fe10cdc68ac1c61cf9cec,participant,Ine,,,,,,,,,,,,,,,,,,,,,,,,
,park1,flow.Sequence,10,,,completion,55186.116999904625,484855.7999999523,484841.464,484857.983,540044.0999999046,540044.6999999285,2023-11-28T14:52:03.800Z,540056.467,MhI4BLKsK3,full,klassikaal_3,652fe10cdc68ac1c61cf9cec,participant,Ine,,,,,,,,,,,,,,,,,,,,,,,,
,prepare,html.Page,11_0,,,form submission,44451.93299997621,540044.8999999762,540040.013,540056.467,584508.3999999762,584508.6999999285,2023-11-28T14:52:48.264Z,584523.428,MhI4BLKsK3,full,klassikaal_3,652fe10cdc68ac1c61cf9cec,participant,Ine,,,,,,,,,,,,,,,,,,,,,,,,
,park2-image,html.Page,11_1,,,form submission,8368.471999976202,584509,584507.357,584523.428,592891.8999999762,592892.1999999285,2023-11-28T14:52:56.648Z,592903.762,MhI4BLKsK3,full,klassikaal_3,652fe10cdc68ac1c61cf9cec,participant,Ine,,,,,,,,,,,,,,,,,,,,,,,"Maar één bloembak ",
,answer,html.Page,11_2,,,form submission,2383.0379999523284,592892.3999999762,592887.306,592903.762,595286.7999999523,595287.5,2023-11-28T14:52:59.044Z,595303.104,MhI4BLKsK3,full,klassikaal_3,652fe10cdc68ac1c61cf9cec,participant,Ine,,,,,,,,,,,,,,,,,,,,,,,,
,park2,flow.Sequence,11,,,completion,55230.33299995237,540044.7999999523,540040.013,540056.467,595286.7999999523,595287.7999999523,2023-11-28T14:52:59.044Z,595303.104,MhI4BLKsK3,full,klassikaal_3,652fe10cdc68ac1c61cf9cec,participant,Ine,,,,,,,,,,,,,,,,,,,,,,,,
,bedankt,html.Page,12,,,timeout,2998.819999999949,595288,595286.327,595303.104,598285.8,598286.8999999762,2023-11-28T14:53:02.043Z,598301.924,MhI4BLKsK3,full,klassikaal_3,652fe10cdc68ac1c61cf9cec,participant,Ine,,,,,,,,,,,,,,,,,,,,,,,,
,root,flow.Sequence,,,,completion,596210.1240000001,2071.6999999284744,1975.72,2075.676,598285.8,598287.1999999285,2023-11-28T14:53:02.043Z,598301.924,MhI4BLKsK3,full,klassikaal_3,652fe10cdc68ac1c61cf9cec,participant,Ine,,,,,,,,,,,,,,,,,,,,,,,,