meta,sender,sender_type,sender_id,Order,,ended_on,duration,time_run,time_render,time_show,time_end,time_commit,timestamp,time_switch,openLabId,type,task,project,status,code,confirmationCode,participant_L1,university_level,age,gender,gender_other,try-out_answer_L2,try-out_answer_L1,beach1_answer_L2,beach1_answer_L1,street1_answer_L2,street1_answer_L1,farm1_answer_L2,farm1_answer_L1,beach2_answer_L2,beach2_answer_L1,street2_answer_L2,street2_answer_L1,farm2_answer_L2,farm2_answer_L1,park1_answer_L2,park1_answer_L1,park2_answer_L2,park2_answer_L1
"{""labjs_version"":""20.2.4"",""labjs_build"":{""flavor"":""production"",""commit"":""f5b4a49f956347addd546a832a3327688c2c0fef""},""location"":""https://open-lab.online/test/klassikaal_3/6565fc56fa275e2b7bded471"",""userAgent"":""Mozilla/5.0 (Windows NT 10.0; Win64; x64) AppleWebKit/537.36 (KHTML, like Gecko) Chrome/119.0.0.0 Safari/537.36"",""platform"":""Win32"",""language"":""nl-BE"",""locale"":""nl"",""timeZone"":""Europe/Brussels"",""timezoneOffset"":-60,""screen_width"":1536,""screen_height"":864,""scroll_width"":1536,""scroll_height"":659,""window_innerWidth"":1536,""window_innerHeight"":707,""devicePixelRatio"":1.25}",ID,html.Page,0,1,,form submission,3284.8290000476836,3853.5,3767.596,3867.371,7152.200000047684,7153.200000047684,2023-11-28T14:42:37.266Z,7171.695,qJbqMAuWgE,full,klassikaal_3,652fe10cdc68ac1c61cf9cec,participant,Noura,823792,,,,,,,,,,,,,,,,,,,,,,,
,language,html.Page,1,,,form submission,28117.805,7153.900000035763,7133.113,7171.695,35289.5,35290,2023-11-28T14:43:05.403Z,35291.487,qJbqMAuWgE,full,klassikaal_3,652fe10cdc68ac1c61cf9cec,participant,Noura,,"Nederlands, Frans",BA,,,,,,,,,,,,,,,,,,,,,
,age-gender,html.Page,2,,,form submission,9017.61300002384,35290.30000001192,35275.325,35291.487,44309.10000002384,44310,2023-11-28T14:43:14.423Z,44322.738,qJbqMAuWgE,full,klassikaal_3,652fe10cdc68ac1c61cf9cec,participant,Noura,,,,20,v,,,,,,,,,,,,,,,,,,,
,prepare,html.Page,3_0,,,form submission,104869.66200003577,44310.5,44306.389,44322.738,149192.40000003576,149193,2023-11-28T14:44:59.306Z,149210.825,qJbqMAuWgE,full,klassikaal_3,652fe10cdc68ac1c61cf9cec,participant,Noura,,,,,,,,,,,,,,,,,,,,,,,,
,try-out-image,html.Page,3_1,,,form submission,13720.97500001191,149193.40000003576,149180.655,149210.825,162931.80000001192,162932.40000003576,2023-11-28T14:45:13.045Z,162937.825,qJbqMAuWgE,full,klassikaal_3,652fe10cdc68ac1c61cf9cec,participant,Noura,,,,,,,eenden,,,,,,,,,,,,,,,,,
,answer,html.Page,3_2,,,form submission,9064.875000047672,162932.70000004768,162921.309,162937.825,172002.70000004768,172003.90000003576,2023-11-28T14:45:22.117Z,172018.528,qJbqMAuWgE,full,klassikaal_3,652fe10cdc68ac1c61cf9cec,participant,Noura,,,,,,,,,,,,,,,,,,,,,,,,
,try-out,flow.Sequence,3,,,completion,127679.96200004769,44310.40000003576,44306.389,44322.738,172002.70000004768,172008.5,2023-11-28T14:45:22.121Z,172018.528,qJbqMAuWgE,full,klassikaal_3,652fe10cdc68ac1c61cf9cec,participant,Noura,,,,,,,,,,,,,,,,,,,,,,,,
,prepare,html.Page,4_0,,,form submission,48871.57200002385,172008.80000001192,172002.263,172018.528,220890.10000002384,220891.20000004768,2023-11-28T14:46:11.004Z,220904.38,qJbqMAuWgE,full,klassikaal_3,652fe10cdc68ac1c61cf9cec,participant,Noura,,,,,,,,,,,,,,,,,,,,,,,,
,beach1-image,html.Page,4_1,,,form submission,30663.720000023837,220891.70000004768,220887.743,220904.38,251568.10000002384,251568.80000001192,2023-11-28T14:46:41.681Z,251578.838,qJbqMAuWgE,full,klassikaal_3,652fe10cdc68ac1c61cf9cec,participant,Noura,,,,,,,,,,,,,,,,,,,,,,,,
,answer,html.Page,4_2,,,form submission,3458.362000047695,251569.5,251550.195,251578.838,255037.20000004768,255038.10000002384,2023-11-28T14:46:45.150Z,255044.624,qJbqMAuWgE,full,klassikaal_3,652fe10cdc68ac1c61cf9cec,participant,Noura,,,,,,,,,,,,,,,,,,,,,,,,
,beach1,flow.Sequence,4,,,completion,83018.67200004769,172008.70000004768,172002.263,172018.528,255037.20000004768,255038.70000004768,2023-11-28T14:46:45.151Z,255044.624,qJbqMAuWgE,full,klassikaal_3,652fe10cdc68ac1c61cf9cec,participant,Noura,,,,,,,,,,,,,,,,,,,,,,,,
,prepare,html.Page,5_0,,,form submission,19394.776000035752,255039,255027.95,255044.624,274439.40000003576,274440.10000002384,2023-11-28T14:47:04.552Z,274455.49,qJbqMAuWgE,full,klassikaal_3,652fe10cdc68ac1c61cf9cec,participant,Noura,,,,,,,,,,,,,,,,,,,,,,,,
,street1-image,html.Page,5_1,,,form submission,13843.51000000001,274440.5,274422.479,274455.49,288299,288300,2023-11-28T14:47:18.412Z,288301.465,qJbqMAuWgE,full,klassikaal_3,652fe10cdc68ac1c61cf9cec,participant,Noura,,,,,,,,,,,tafelkleed,,,,,,,,,,,,,
,answer,html.Page,5_2,,,form submission,6155.135000023816,288300.3000000119,288285.239,288301.465,294456.60000002384,294457.10000002384,2023-11-28T14:47:24.569Z,294468.166,qJbqMAuWgE,full,klassikaal_3,652fe10cdc68ac1c61cf9cec,participant,Noura,,,,,,,,,,,,,,,,,,,,,,,,
,street1,flow.Sequence,5,,,completion,39411.97600002383,255038.90000003576,255027.95,255044.624,294456.60000002384,294457.40000003576,2023-11-28T14:47:24.569Z,294468.166,qJbqMAuWgE,full,klassikaal_3,652fe10cdc68ac1c61cf9cec,participant,Noura,,,,,,,,,,,,,,,,,,,,,,,,
,prepare,html.Page,6_0,,,form submission,38650.234000035736,294457.7000000477,294449.758,294468.166,333118.40000003576,333119.3000000119,2023-11-28T14:48:03.231Z,333121.808,qJbqMAuWgE,full,klassikaal_3,652fe10cdc68ac1c61cf9cec,participant,Noura,,,,,,,,,,,,,,,,,,,,,,,,
,farm1-image,html.Page,6_1,,,form submission,11432.792000023823,333119.5,333105.554,333121.808,344554.60000002384,344555.2000000477,2023-11-28T14:48:14.667Z,344568.454,qJbqMAuWgE,full,klassikaal_3,652fe10cdc68ac1c61cf9cec,participant,Noura,,,,,,,,,,,,,de man zaagt de boom niet met de kettingzaag,,,,,,,,,,,
,answer,html.Page,6_2,,,form submission,3416.7460000476567,344555.3000000119,344552.26,344568.454,347985.2000000477,347986.10000002384,2023-11-28T14:48:18.098Z,348001.153,qJbqMAuWgE,full,klassikaal_3,652fe10cdc68ac1c61cf9cec,participant,Noura,,,,,,,,,,,,,,,,,,,,,,,,
,farm1,flow.Sequence,6,,,completion,53517.03400004766,294457.60000002384,294449.758,294468.166,347985.2000000477,347986.5,2023-11-28T14:48:18.099Z,348001.153,qJbqMAuWgE,full,klassikaal_3,652fe10cdc68ac1c61cf9cec,participant,Noura,,,,,,,,,,,,,,,,,,,,,,,,
,prepare,html.Page,7_0,,,form submission,44399.94700002385,347986.8000000119,347972.646,348001.153,392401.10000002384,392401.60000002384,2023-11-28T14:49:02.514Z,392408.875,qJbqMAuWgE,full,klassikaal_3,652fe10cdc68ac1c61cf9cec,participant,Noura,,,,,,,,,,,,,,,,,,,,,,,,
,beach2-image,html.Page,7_1,,,form submission,14313.725000023842,392401.90000003576,392388.848,392408.875,406722.60000002384,406723.3000000119,2023-11-28T14:49:16.836Z,406735.04,qJbqMAuWgE,full,klassikaal_3,652fe10cdc68ac1c61cf9cec,participant,Noura,,,,,,,,,,,,,,,de frietjes,,,,,,,,,
,answer,html.Page,7_2,,,form submission,5406.760000011942,406723.8000000119,406717.375,406735.04,412141.8000000119,412142.40000003576,2023-11-28T14:49:22.255Z,412148.977,qJbqMAuWgE,full,klassikaal_3,652fe10cdc68ac1c61cf9cec,participant,Noura,,,,,,,,,,,,,,,,,,,,,,,,
,beach2,flow.Sequence,7,,,completion,64140.64700001193,347986.7000000477,347972.646,348001.153,412141.8000000119,412142.90000003576,2023-11-28T14:49:22.255Z,412148.977,qJbqMAuWgE,full,klassikaal_3,652fe10cdc68ac1c61cf9cec,participant,Noura,,,,,,,,,,,,,,,,,,,,,,,,
,prepare,html.Page,8_0,,,form submission,39578.12300002383,412143.3000000119,412132.746,412148.977,451727.10000002384,451727.90000003576,2023-11-28T14:50:01.840Z,451737.412,qJbqMAuWgE,full,klassikaal_3,652fe10cdc68ac1c61cf9cec,participant,Noura,,,,,,,,,,,,,,,,,,,,,,,,
,street2-image,html.Page,8_1,,,form submission,7486.7880000476725,451728.5,451721.141,451737.412,459224.2000000477,459225,2023-11-28T14:50:09.337Z,459235.492,qJbqMAuWgE,full,klassikaal_3,652fe10cdc68ac1c61cf9cec,participant,Noura,,,,,,,,,,,,,,,,,een grote rode strik,,,,,,,
,answer,html.Page,8_2,,,form submission,1381.9080000357353,459225.40000003576,459218.794,459235.492,460617.40000003576,460617.90000003576,2023-11-28T14:50:10.730Z,460618.154,qJbqMAuWgE,full,klassikaal_3,652fe10cdc68ac1c61cf9cec,participant,Noura,,,,,,,,,,,,,,,,,,,,,,,,
,street2,flow.Sequence,8,,,completion,48468.42300003575,412143.2000000477,412132.746,412148.977,460617.40000003576,460618.3000000119,2023-11-28T14:50:10.730Z,460618.154,qJbqMAuWgE,full,klassikaal_3,652fe10cdc68ac1c61cf9cec,participant,Noura,,,,,,,,,,,,,,,,,,,,,,,,
,prepare,html.Page,9_0,,,form submission,46567.84600000002,460618.7000000477,460601.921,460618.154,507186,507186.7000000477,2023-11-28T14:50:57.299Z,507187.987,qJbqMAuWgE,full,klassikaal_3,652fe10cdc68ac1c61cf9cec,participant,Noura,,,,,,,,,,,,,,,,,,,,,,,,
,farm2-image,html.Page,9_1,,,form submission,13513.41300003574,507187.40000003576,507171.495,507187.987,520701.40000003576,520702.10000002384,2023-11-28T14:51:10.815Z,520700.835,qJbqMAuWgE,full,klassikaal_3,652fe10cdc68ac1c61cf9cec,participant,Noura,,,,,,,,,,,,,,,,,,,er zijn drie strobalen ipv twee,,,,,
,answer,html.Page,9_2,,,form submission,2235.065000035742,520702.5,520684.42,520700.835,522935.90000003576,522936.60000002384,2023-11-28T14:51:13.049Z,522950.218,qJbqMAuWgE,full,klassikaal_3,652fe10cdc68ac1c61cf9cec,participant,Noura,,,,,,,,,,,,,,,,,,,,,,,,
,farm2,flow.Sequence,9,,,completion,62317.74600003578,460618.60000002384,460601.921,460618.154,522935.90000003576,522937.3000000119,2023-11-28T14:51:13.050Z,522950.218,qJbqMAuWgE,full,klassikaal_3,652fe10cdc68ac1c61cf9cec,participant,Noura,,,,,,,,,,,,,,,,,,,,,,,,
,prepare,html.Page,10_0,,,form submission,40525.98200004769,522937.60000002384,522934.104,522950.218,563476.2000000477,563476.6000000238,2023-11-28T14:51:53.589Z,563488.359,qJbqMAuWgE,full,klassikaal_3,652fe10cdc68ac1c61cf9cec,participant,Noura,,,,,,,,,,,,,,,,,,,,,,,,
,park1-image,html.Page,10_1,,,form submission,7105.341000047629,563476.9000000358,563471.782,563488.359,570593.7000000477,570594,2023-11-28T14:52:00.707Z,570603.827,qJbqMAuWgE,full,klassikaal_3,652fe10cdc68ac1c61cf9cec,participant,Noura,,,,,,,,,,,,,,,,,,,,,geen kind dat fietst,,,
,answer,html.Page,10_2,,,form submission,3481.7730000237934,570594.2000000477,570586.31,570603.827,574085.6000000238,574086.2000000477,2023-11-28T14:52:04.199Z,574086.477,qJbqMAuWgE,full,klassikaal_3,652fe10cdc68ac1c61cf9cec,participant,Noura,,,,,,,,,,,,,,,,,,,,,,,,
,park1,flow.Sequence,10,,,completion,51135.38200002385,522937.5,522934.104,522950.218,574085.6000000238,574086.9000000358,2023-11-28T14:52:04.200Z,574086.477,qJbqMAuWgE,full,klassikaal_3,652fe10cdc68ac1c61cf9cec,participant,Noura,,,,,,,,,,,,,,,,,,,,,,,,
,prepare,html.Page,11_0,,,form submission,44063.92300003581,574087.2000000477,574072.367,574086.477,618150.4000000358,618150.7000000477,2023-11-28T14:52:48.264Z,618156.092,qJbqMAuWgE,full,klassikaal_3,652fe10cdc68ac1c61cf9cec,participant,Noura,,,,,,,,,,,,,,,,,,,,,,,,
,park2-image,html.Page,11_1,,,form submission,5310.708000011975,618150.9000000358,618139.312,618156.092,623466.8000000119,623467.2000000477,2023-11-28T14:52:53.580Z,623470.941,qJbqMAuWgE,full,klassikaal_3,652fe10cdc68ac1c61cf9cec,participant,Noura,,,,,,,,,,,,,,,,,,,,,,,de witte bloemen,
,answer,html.Page,11_2,,,form submission,2416.1590000238502,623467.4000000358,623454.646,623470.941,625887.1000000238,625887.5,2023-11-28T14:52:56.000Z,625905.093,qJbqMAuWgE,full,klassikaal_3,652fe10cdc68ac1c61cf9cec,participant,Noura,,,,,,,,,,,,,,,,,,,,,,,,
,park2,flow.Sequence,11,,,completion,51800.62300002389,574087.1000000238,574072.367,574086.477,625887.1000000238,625887.8000000119,2023-11-28T14:52:56.001Z,625905.093,qJbqMAuWgE,full,klassikaal_3,652fe10cdc68ac1c61cf9cec,participant,Noura,,,,,,,,,,,,,,,,,,,,,,,,
,bedankt,html.Page,12,,,timeout,2997.935999999987,625888.1000000238,625870.658,625905.093,628886.125,628887.7000000477,2023-11-28T14:52:59.001Z,628903.029,qJbqMAuWgE,full,klassikaal_3,652fe10cdc68ac1c61cf9cec,participant,Noura,,,,,,,,,,,,,,,,,,,,,,,,
,root,flow.Sequence,,,,completion,625018.754,3853.300000011921,3767.596,3867.371,628886.125,628888.2000000477,2023-11-28T14:52:59.001Z,628903.029,qJbqMAuWgE,full,klassikaal_3,652fe10cdc68ac1c61cf9cec,participant,Noura,,,,,,,,,,,,,,,,,,,,,,,,