meta,sender,sender_type,sender_id,Order,,ended_on,duration,time_run,time_render,time_show,time_end,time_commit,timestamp,time_switch,openLabId,type,task,project,status,code,confirmationCode,participant_L1,university_level,age,gender,gender_other,try-out_answer_L2,try-out_answer_L1,beach1_answer_L2,beach1_answer_L1,street1_answer_L2,street1_answer_L1,farm1_answer_L2,farm1_answer_L1,beach2_answer_L2,beach2_answer_L1,street2_answer_L2,street2_answer_L1,farm2_answer_L2,farm2_answer_L1,park1_answer_L2,park1_answer_L1,park2_answer_L2,park2_answer_L1
"{""labjs_version"":""20.2.4"",""labjs_build"":{""flavor"":""production"",""commit"":""f5b4a49f956347addd546a832a3327688c2c0fef""},""location"":""https://open-lab.online/test/klassikaal_3/6565fc56fa275e2b7bded470"",""userAgent"":""Mozilla/5.0 (Windows NT 10.0; Win64; x64) AppleWebKit/537.36 (KHTML, like Gecko) Chrome/119.0.0.0 Safari/537.36"",""platform"":""Win32"",""language"":""nl-NL"",""locale"":""nl"",""timeZone"":""Europe/Brussels"",""timezoneOffset"":-60,""screen_width"":1536,""screen_height"":864,""scroll_width"":1536,""scroll_height"":682,""window_innerWidth"":1536,""window_innerHeight"":730,""devicePixelRatio"":1.25}",ID,html.Page,0,1,,form submission,5129.025999988079,2464.600000023842,2272.632,2472.674,7601.699999988079,7603.400000035763,2023-11-28T14:42:38.429Z,7622.062,GAnCG0UgBv,full,klassikaal_3,652fe10cdc68ac1c61cf9cec,participant,S,233070,,,,,,,,,,,,,,,,,,,,,,,
,language,html.Page,1,,,form submission,40505.938,7604.100000023842,7588.822,7622.062,48128,48128.69999998808,2023-11-28T14:43:18.959Z,48133.422,GAnCG0UgBv,full,klassikaal_3,652fe10cdc68ac1c61cf9cec,participant,S,,Nederlands,BA,,,,,,,,,,,,,,,,,,,,,
,age-gender,html.Page,2,,,form submission,7224.978000035764,48129,48116.758,48133.422,55358.40000003576,55360,2023-11-28T14:43:26.191Z,55365.856,GAnCG0UgBv,full,klassikaal_3,652fe10cdc68ac1c61cf9cec,participant,S,,,,19,v,,,,,,,,,,,,,,,,,,,
,prepare,html.Page,3_0,,,form submission,92401.54400003576,55360.80000001192,55349.655,55365.856,147767.40000003576,147768.19999998808,2023-11-28T14:44:58.597Z,147770.689,GAnCG0UgBv,full,klassikaal_3,652fe10cdc68ac1c61cf9cec,participant,S,,,,,,,,,,,,,,,,,,,,,,,,
,try-out-image,html.Page,3_1,,,form submission,8851.411000023829,147768.69999998808,147754.248,147770.689,156622.10000002384,156623,2023-11-28T14:45:07.452Z,156636.204,GAnCG0UgBv,full,klassikaal_3,652fe10cdc68ac1c61cf9cec,participant,S,,,,,,,Twee eenden,,,,,,,,,,,,,,,,,
,answer,html.Page,3_2,,,form submission,3895.995999988081,156623.19999998808,156619.627,156636.204,160532.19999998808,160533.19999998808,2023-11-28T14:45:11.362Z,160535.785,GAnCG0UgBv,full,klassikaal_3,652fe10cdc68ac1c61cf9cec,participant,S,,,,,,,,,,,,,,,,,,,,,,,,
,try-out,flow.Sequence,3,,,completion,105166.34399998808,55360.60000002384,55349.655,55365.856,160532.19999998808,160538.80000001192,2023-11-28T14:45:11.368Z,160535.785,GAnCG0UgBv,full,klassikaal_3,652fe10cdc68ac1c61cf9cec,participant,S,,,,,,,,,,,,,,,,,,,,,,,,
,prepare,html.Page,4_0,,,form submission,61912.61500003576,160539.19999998808,160519.557,160535.785,222448.40000003576,222449.40000003576,2023-11-28T14:46:13.275Z,222461.148,GAnCG0UgBv,full,klassikaal_3,652fe10cdc68ac1c61cf9cec,participant,S,,,,,,,,,,,,,,,,,,,,,,,,
,beach1-image,html.Page,4_1,,,form submission,4673.452000023855,222449.90000003576,222443.412,222461.148,227134.60000002384,227135.60000002384,2023-11-28T14:46:17.961Z,227143.833,GAnCG0UgBv,full,klassikaal_3,652fe10cdc68ac1c61cf9cec,participant,S,,,,,,,,,De surfer,,,,,,,,,,,,,,,
,answer,html.Page,4_2,,,form submission,3708.366999988066,227136,227126.932,227143.833,230852.19999998808,230853.19999998808,2023-11-28T14:46:21.679Z,230860.095,GAnCG0UgBv,full,klassikaal_3,652fe10cdc68ac1c61cf9cec,participant,S,,,,,,,,,,,,,,,,,,,,,,,,
,beach1,flow.Sequence,4,,,completion,70316.41499998808,160539.10000002384,160519.557,160535.785,230852.19999998808,230854,2023-11-28T14:46:21.680Z,230860.095,GAnCG0UgBv,full,klassikaal_3,652fe10cdc68ac1c61cf9cec,participant,S,,,,,,,,,,,,,,,,,,,,,,,,
,prepare,html.Page,5_0,,,form submission,22586.30500003576,230854.40000003576,230843.523,230860.095,253446.40000003576,253447.19999998808,2023-11-28T14:46:44.273Z,253457.151,GAnCG0UgBv,full,klassikaal_3,652fe10cdc68ac1c61cf9cec,participant,S,,,,,,,,,,,,,,,,,,,,,,,,
,street1-image,html.Page,5_1,,,form submission,25646.548999988066,253447.80000001192,253440.554,253457.151,279103.6999999881,279105.10000002384,2023-11-28T14:47:09.931Z,279103.85,GAnCG0UgBv,full,klassikaal_3,652fe10cdc68ac1c61cf9cec,participant,S,,,,,,,,,,,Dierenwinkel,,,,,,,,,,,,,
,answer,html.Page,5_2,,,form submission,3575.950000011944,279105.40000003576,279087.246,279103.85,282679.8000000119,282680.60000002384,2023-11-28T14:47:13.506Z,282686.784,GAnCG0UgBv,full,klassikaal_3,652fe10cdc68ac1c61cf9cec,participant,S,,,,,,,,,,,,,,,,,,,,,,,,
,street1,flow.Sequence,5,,,completion,51819.70500001192,230854.30000001192,230843.523,230860.095,282679.8000000119,282681,2023-11-28T14:47:13.506Z,282686.784,GAnCG0UgBv,full,klassikaal_3,652fe10cdc68ac1c61cf9cec,participant,S,,,,,,,,,,,,,,,,,,,,,,,,
,prepare,html.Page,6_0,,,form submission,49299.11600003578,282681.3000000119,282669.712,282686.784,331985.90000003576,331986.3000000119,2023-11-28T14:48:02.812Z,331996.999,GAnCG0UgBv,full,klassikaal_3,652fe10cdc68ac1c61cf9cec,participant,S,,,,,,,,,,,,,,,,,,,,,,,,
,farm1-image,html.Page,6_1,,,form submission,8116.101000023831,331986.5,331980.396,331996.999,340113.10000002384,340114.10000002384,2023-11-28T14:48:10.939Z,340129.361,GAnCG0UgBv,full,klassikaal_3,652fe10cdc68ac1c61cf9cec,participant,S,,,,,,,,,,,,,kettingzaag,,,,,,,,,,,
,answer,html.Page,6_2,,,form submission,941.2390000238665,340114.5,340112.708,340129.361,341070.60000002384,341071.3000000119,2023-11-28T14:48:11.897Z,341079.276,GAnCG0UgBv,full,klassikaal_3,652fe10cdc68ac1c61cf9cec,participant,S,,,,,,,,,,,,,,,,,,,,,,,,
,farm1,flow.Sequence,6,,,completion,58383.81600002386,282681.3000000119,282669.712,282686.784,341070.60000002384,341071.8000000119,2023-11-28T14:48:11.897Z,341079.276,GAnCG0UgBv,full,klassikaal_3,652fe10cdc68ac1c61cf9cec,participant,S,,,,,,,,,,,,,,,,,,,,,,,,
,prepare,html.Page,7_0,,,form submission,50892.82400002383,341072.10000002384,341062.602,341079.276,391972.10000002384,391973,2023-11-28T14:49:02.803Z,391972.714,GAnCG0UgBv,full,klassikaal_3,652fe10cdc68ac1c61cf9cec,participant,S,,,,,,,,,,,,,,,,,,,,,,,,
,beach2-image,html.Page,7_1,,,form submission,6440.186000035785,391973.5,391956.102,391972.714,398412.90000003576,398413.6999999881,2023-11-28T14:49:09.244Z,398421.877,GAnCG0UgBv,full,klassikaal_3,652fe10cdc68ac1c61cf9cec,participant,S,,,,,,,,,,,,,,,De man die de auto duwt,,,,,,,,,
,answer,html.Page,7_2,,,form submission,1107.3229999881005,398414.10000002384,398405.854,398421.877,399529.1999999881,399529.90000003576,2023-11-28T14:49:10.360Z,399538.409,GAnCG0UgBv,full,klassikaal_3,652fe10cdc68ac1c61cf9cec,participant,S,,,,,,,,,,,,,,,,,,,,,,,,
,beach2,flow.Sequence,7,,,completion,58449.92399998807,341072,341062.602,341079.276,399529.1999999881,399530.40000003576,2023-11-28T14:49:10.361Z,399538.409,GAnCG0UgBv,full,klassikaal_3,652fe10cdc68ac1c61cf9cec,participant,S,,,,,,,,,,,,,,,,,,,,,,,,
,prepare,html.Page,8_0,,,form submission,53496.99100003578,399530.8000000119,399522.418,399538.409,453035.40000003576,453036.3000000119,2023-11-28T14:50:03.866Z,453048.153,GAnCG0UgBv,full,klassikaal_3,652fe10cdc68ac1c61cf9cec,participant,S,,,,,,,,,,,,,,,,,,,,,,,,
,street2-image,html.Page,8_1,,,form submission,7713.14700001193,453036.5,453031.587,453048.153,460761.3000000119,460762.40000003576,2023-11-28T14:50:11.592Z,460763.948,GAnCG0UgBv,full,klassikaal_3,652fe10cdc68ac1c61cf9cec,participant,S,,,,,,,,,,,,,,,,,Grote rode strik bij de ene beer,,,,,,,
,answer,html.Page,8_2,,,form submission,702.7519999881042,460762.8000000119,460747.24,460763.948,461466.6999999881,461467.5,2023-11-28T14:50:12.297Z,461480.456,GAnCG0UgBv,full,klassikaal_3,652fe10cdc68ac1c61cf9cec,participant,S,,,,,,,,,,,,,,,,,,,,,,,,
,street2,flow.Sequence,8,,,completion,61928.290999988094,399530.60000002384,399522.418,399538.409,461466.6999999881,461468.10000002384,2023-11-28T14:50:12.298Z,461480.456,GAnCG0UgBv,full,klassikaal_3,652fe10cdc68ac1c61cf9cec,participant,S,,,,,,,,,,,,,,,,,,,,,,,,
,prepare,html.Page,9_0,,,form submission,51251.543999999994,461468.5,461464.006,461480.456,512732,512733,2023-11-28T14:51:03.562Z,512740.566,GAnCG0UgBv,full,klassikaal_3,652fe10cdc68ac1c61cf9cec,participant,S,,,,,,,,,,,,,,,,,,,,,,,,
,farm2-image,html.Page,9_1,,,form submission,11246.133999988087,512733.5,512724.197,512740.566,523986.6999999881,523987.5,2023-11-28T14:51:14.816Z,524005.792,GAnCG0UgBv,full,klassikaal_3,652fe10cdc68ac1c61cf9cec,participant,S,,,,,,,,,,,,,,,,,,,Imker is niet in paniek,,,,,
,answer,html.Page,9_2,,,form submission,1952.808000023826,523987.8000000119,523989.186,524005.792,525958.6000000238,525959.4000000358,2023-11-28T14:51:16.788Z,525972.266,GAnCG0UgBv,full,klassikaal_3,652fe10cdc68ac1c61cf9cec,participant,S,,,,,,,,,,,,,,,,,,,,,,,,
,farm2,flow.Sequence,9,,,completion,64478.144000023836,461468.40000003576,461464.006,461480.456,525958.6000000238,525959.8000000119,2023-11-28T14:51:16.789Z,525972.266,GAnCG0UgBv,full,klassikaal_3,652fe10cdc68ac1c61cf9cec,participant,S,,,,,,,,,,,,,,,,,,,,,,,,
,prepare,html.Page,10_0,,,form submission,37642.933999988134,525960.1000000238,525955.529,525972.266,563615.1999999881,563615.9000000358,2023-11-28T14:51:54.445Z,563617.403,GAnCG0UgBv,full,klassikaal_3,652fe10cdc68ac1c61cf9cec,participant,S,,,,,,,,,,,,,,,,,,,,,,,,
,park1-image,html.Page,10_1,,,form submission,7201.6970000237925,563616.1999999881,563600.936,563617.403,570819.1000000238,570819.9000000358,2023-11-28T14:52:01.649Z,570833.118,GAnCG0UgBv,full,klassikaal_3,652fe10cdc68ac1c61cf9cec,participant,S,,,,,,,,,,,,,,,,,,,,,Kindje op de fiets met zijwieltjes,,,
,answer,html.Page,10_2,,,form submission,1219.3819999999832,570820.1000000238,570816.938,570833.118,572052.5,572053.1999999881,2023-11-28T14:52:02.882Z,572066.375,GAnCG0UgBv,full,klassikaal_3,652fe10cdc68ac1c61cf9cec,participant,S,,,,,,,,,,,,,,,,,,,,,,,,
,park1,flow.Sequence,10,,,completion,46080.234000000055,525960,525955.529,525972.266,572052.5,572053.6999999881,2023-11-28T14:52:02.883Z,572066.375,GAnCG0UgBv,full,klassikaal_3,652fe10cdc68ac1c61cf9cec,participant,S,,,,,,,,,,,,,,,,,,,,,,,,
,prepare,html.Page,11_0,,,form submission,46790.22500002384,572054.1000000238,572050.019,572066.375,618856.6000000238,618857.1999999881,2023-11-28T14:52:49.683Z,618860.277,GAnCG0UgBv,full,klassikaal_3,652fe10cdc68ac1c61cf9cec,participant,S,,,,,,,,,,,,,,,,,,,,,,,,
,park2-image,html.Page,11_1,,,form submission,11118.722999999998,618857.6000000238,618843.83,618860.277,629979,629979.9000000358,2023-11-28T14:53:00.806Z,629992.175,GAnCG0UgBv,full,klassikaal_3,652fe10cdc68ac1c61cf9cec,participant,S,,,,,,,,,,,,,,,,,,,,,,,Geen witte bloemen in de bloembak bij de kiosk,
,answer,html.Page,11_2,,,form submission,20501.925000023795,629980.4000000358,629975.546,629992.175,650494.1000000238,650494.8000000119,2023-11-28T14:53:21.326Z,650506.174,GAnCG0UgBv,full,klassikaal_3,652fe10cdc68ac1c61cf9cec,participant,S,,,,,,,,,,,,,,,,,,,,,,,,
,park2,flow.Sequence,11,,,completion,78427.72500002384,572054,572050.019,572066.375,650494.1000000238,650495.3000000119,2023-11-28T14:53:21.327Z,650506.174,GAnCG0UgBv,full,klassikaal_3,652fe10cdc68ac1c61cf9cec,participant,S,,,,,,,,,,,,,,,,,,,,,,,,
,bedankt,html.Page,12,,,timeout,2999.719999999972,650495.6000000238,650489.727,650506.174,653489.149,653497.6000000238,2023-11-28T14:53:24.329Z,653505.894,GAnCG0UgBv,full,klassikaal_3,652fe10cdc68ac1c61cf9cec,participant,S,,,,,,,,,,,,,,,,,,,,,,,,
,root,flow.Sequence,,,,completion,651016.475,2464.100000023842,2272.632,2472.674,653489.149,653498.3000000119,2023-11-28T14:53:24.330Z,653505.894,GAnCG0UgBv,full,klassikaal_3,652fe10cdc68ac1c61cf9cec,participant,S,,,,,,,,,,,,,,,,,,,,,,,,