meta,sender,sender_type,sender_id,Order,,ended_on,duration,time_run,time_render,time_show,time_end,time_commit,timestamp,time_switch,openLabId,type,task,project,status,code,confirmationCode,participant_L1,university_level,age,gender,gender_other,try-out_answer_L2,try-out_answer_L1,beach1_answer_L2,beach1_answer_L1,street1_answer_L2,street1_answer_L1,farm1_answer_L2,farm1_answer_L1,beach2_answer_L2,beach2_answer_L1,street2_answer_L2,street2_answer_L1,farm2_answer_L2,farm2_answer_L1,park1_answer_L2,park1_answer_L1,park2_answer_L2,park2_answer_L1
"{""labjs_version"":""20.2.4"",""labjs_build"":{""flavor"":""production"",""commit"":""f5b4a49f956347addd546a832a3327688c2c0fef""},""location"":""https://open-lab.online/test/klassikaal_3/6565a0ecfa275e2b7bdece20"",""userAgent"":""Mozilla/5.0 (Linux; Android 10; K) AppleWebKit/537.36 (KHTML, like Gecko) Chrome/119.0.0.0 Mobile Safari/537.36"",""platform"":""Linux armv81"",""language"":""fr-FR"",""locale"":""fr"",""timeZone"":""Europe/Brussels"",""timezoneOffset"":-60,""screen_width"":432,""screen_height"":960,""scroll_width"":980,""scroll_height"":1994,""window_innerWidth"":980,""window_innerHeight"":1806,""devicePixelRatio"":2.5}",ID,html.Page,0,2,,form submission,8234,2551,2491,2565,10799,10801,2023-11-28T08:12:37.609Z,10816,ZWS6B0Hjaw,full,klassikaal_3,652fe10cdc68ac1c61cf9cec,participant,Geert,701848,,,,,,,,,,,,,,,,,,,,,,,
,language,html.Page,1,,,form submission,33427,10803,10783,10816,44243,44245,2023-11-28T08:13:11.052Z,44277,ZWS6B0Hjaw,full,klassikaal_3,652fe10cdc68ac1c61cf9cec,participant,Geert,,Frans en Nederlands,BA,,,,,,,,,,,,,,,,,,,,,
,age-gender,html.Page,2,,,form submission,34554,44247,44235,44277,78831,78833,2023-11-28T08:13:45.640Z,78843,ZWS6B0Hjaw,full,klassikaal_3,652fe10cdc68ac1c61cf9cec,participant,Geert,,,,19,m,,,,,,,,,,,,,,,,,,,
,prepare,html.Page,3_0,,,form submission,124687,78835,78810,78843,203530,203534,2023-11-28T08:15:50.341Z,203576,ZWS6B0Hjaw,full,klassikaal_3,652fe10cdc68ac1c61cf9cec,participant,Geert,,,,,,,,,,,,,,,,,,,,,,,,
,try-out-image,html.Page,3_1,,,form submission,39929,203538,203477,203576,243505,243507,2023-11-28T08:16:30.313Z,243514,ZWS6B0Hjaw,full,klassikaal_3,652fe10cdc68ac1c61cf9cec,participant,Geert,,,,,,,Er ontbreken twee eenden,"Il manque deux canards ",,,,,,,,,,,,,,,,
,answer,html.Page,3_2,,,form submission,18102,243507,243497,243514,261616,261617,2023-11-28T08:16:48.424Z,261641,ZWS6B0Hjaw,full,klassikaal_3,652fe10cdc68ac1c61cf9cec,participant,Geert,,,,,,,,,,,,,,,,,,,,,,,,
,try-out,flow.Sequence,3,,,completion,182773,78834,78810,78843,261616,261632,2023-11-28T08:16:48.439Z,261641,ZWS6B0Hjaw,full,klassikaal_3,652fe10cdc68ac1c61cf9cec,participant,Geert,,,,,,,,,,,,,,,,,,,,,,,,
,prepare,html.Page,4_0,,,form submission,26360,261635,261616,261641,288001,288004,2023-11-28T08:17:14.810Z,288025,ZWS6B0Hjaw,full,klassikaal_3,652fe10cdc68ac1c61cf9cec,participant,Geert,,,,,,,,,,,,,,,,,,,,,,,,
,beach1-image,html.Page,4_1,,,form submission,32204,288005,288000,288025,320229,320231,2023-11-28T08:17:47.037Z,320234,ZWS6B0Hjaw,full,klassikaal_3,652fe10cdc68ac1c61cf9cec,participant,Geert,,,,,,,,,De man zit gewoon aan zee en zit niet te vissen,L'homme ne pêche pas,,,,,,,,,,,,,,
,answer,html.Page,4_2,,,form submission,3119,320231,320209,320234,323353,323355,2023-11-28T08:17:50.162Z,323374,ZWS6B0Hjaw,full,klassikaal_3,652fe10cdc68ac1c61cf9cec,participant,Geert,,,,,,,,,,,,,,,,,,,,,,,,
,beach1,flow.Sequence,4,,,completion,61712,261633,261616,261641,323353,323358,2023-11-28T08:17:50.164Z,323374,ZWS6B0Hjaw,full,klassikaal_3,652fe10cdc68ac1c61cf9cec,participant,Geert,,,,,,,,,,,,,,,,,,,,,,,,
,prepare,html.Page,5_0,,,form submission,15032,323359,323349,323374,338406,338409,2023-11-28T08:18:05.215Z,338426,ZWS6B0Hjaw,full,klassikaal_3,652fe10cdc68ac1c61cf9cec,participant,Geert,,,,,,,,,,,,,,,,,,,,,,,,
,street1-image,html.Page,5_1,,,form submission,36271,338409,338402,338426,374697,374699,2023-11-28T08:18:41.507Z,374715,ZWS6B0Hjaw,full,klassikaal_3,652fe10cdc68ac1c61cf9cec,participant,Geert,,,,,,,,,,,,,,,,,,,,,,,,
,answer,html.Page,5_2,,,form submission,4036,374701,374691,374715,378751,378753,2023-11-28T08:18:45.560Z,378768,ZWS6B0Hjaw,full,klassikaal_3,652fe10cdc68ac1c61cf9cec,participant,Geert,,,,,,,,,,,,,,,,,,,,,,,,
,street1,flow.Sequence,5,,,completion,55377,323358,323349,323374,378751,378754,2023-11-28T08:18:45.561Z,378768,ZWS6B0Hjaw,full,klassikaal_3,652fe10cdc68ac1c61cf9cec,participant,Geert,,,,,,,,,,,,,,,,,,,,,,,,
,prepare,html.Page,6_0,,,form submission,12779,378756,378751,378768,391547,391549,2023-11-28T08:18:58.356Z,391574,ZWS6B0Hjaw,full,klassikaal_3,652fe10cdc68ac1c61cf9cec,participant,Geert,,,,,,,,,,,,,,,,,,,,,,,,
,farm1-image,html.Page,6_1,,,form submission,29637,391550,391549,391574,421211,421213,2023-11-28T08:19:28.020Z,421230,ZWS6B0Hjaw,full,klassikaal_3,652fe10cdc68ac1c61cf9cec,participant,Geert,,,,,,,,,,,,,De man is de boom niet an het omzagen,L'homme n'est pas en train d'abattre l'arbre,,,,,,,,,,
,answer,html.Page,6_2,,,form submission,5893,421215,421196,421230,427123,427125,2023-11-28T08:19:33.932Z,427142,ZWS6B0Hjaw,full,klassikaal_3,652fe10cdc68ac1c61cf9cec,participant,Geert,,,,,,,,,,,,,,,,,,,,,,,,
,farm1,flow.Sequence,6,,,completion,48355,378755,378751,378768,427123,427127,2023-11-28T08:19:33.933Z,427142,ZWS6B0Hjaw,full,klassikaal_3,652fe10cdc68ac1c61cf9cec,participant,Geert,,,,,,,,,,,,,,,,,,,,,,,,
,prepare,html.Page,7_0,,,form submission,22108,427128,427126,427142,449250,449253,2023-11-28T08:19:56.060Z,449279,ZWS6B0Hjaw,full,klassikaal_3,652fe10cdc68ac1c61cf9cec,participant,Geert,,,,,,,,,,,,,,,,,,,,,,,,
,beach2-image,html.Page,7_1,,,form submission,36806,449254,449246,449279,486085,486087,2023-11-28T08:20:32.894Z,486100,ZWS6B0Hjaw,full,klassikaal_3,652fe10cdc68ac1c61cf9cec,participant,Geert,,,,,,,,,,,,,,,,,,,,,,,,
,answer,html.Page,7_2,,,form submission,4778,486087,486076,486100,490878,490880,2023-11-28T08:20:37.687Z,490896,ZWS6B0Hjaw,full,klassikaal_3,652fe10cdc68ac1c61cf9cec,participant,Geert,,,,,,,,,,,,,,,,,,,,,,,,
,beach2,flow.Sequence,7,,,completion,63736,427127,427126,427142,490878,490881,2023-11-28T08:20:37.688Z,490896,ZWS6B0Hjaw,full,klassikaal_3,652fe10cdc68ac1c61cf9cec,participant,Geert,,,,,,,,,,,,,,,,,,,,,,,,
,prepare,html.Page,8_0,,,form submission,35532,490883,490880,490896,526428,526430,2023-11-28T08:21:13.237Z,526456,ZWS6B0Hjaw,full,klassikaal_3,652fe10cdc68ac1c61cf9cec,participant,Geert,,,,,,,,,,,,,,,,,,,,,,,,
,street2-image,html.Page,8_1,,,form submission,12484,526431,526431,526456,538940,538943,2023-11-28T08:21:25.750Z,538964,ZWS6B0Hjaw,full,klassikaal_3,652fe10cdc68ac1c61cf9cec,participant,Geert,,,,,,,,,,,,,,,,,Ik weet het niet,"Je ne sais pas ",,,,,,
,answer,html.Page,8_2,,,form submission,5155,538944,538931,538964,544119,544122,2023-11-28T08:21:30.928Z,544132,ZWS6B0Hjaw,full,klassikaal_3,652fe10cdc68ac1c61cf9cec,participant,Geert,,,,,,,,,,,,,,,,,,,,,,,,
,street2,flow.Sequence,8,,,completion,53223,490883,490880,490896,544119,544123,2023-11-28T08:21:30.930Z,544132,ZWS6B0Hjaw,full,klassikaal_3,652fe10cdc68ac1c61cf9cec,participant,Geert,,,,,,,,,,,,,,,,,,,,,,,,
,prepare,html.Page,9_0,,,form submission,4788,544124,544116,544132,548920,548922,2023-11-28T08:21:35.729Z,548945,ZWS6B0Hjaw,full,klassikaal_3,652fe10cdc68ac1c61cf9cec,participant,Geert,,,,,,,,,,,,,,,,,,,,,,,,
,farm2-image,html.Page,9_1,,,form submission,53459,548923,548920,548945,602404,602405,2023-11-28T08:22:29.212Z,602419,ZWS6B0Hjaw,full,klassikaal_3,652fe10cdc68ac1c61cf9cec,participant,Geert,,,,,,,,,,,,,,,,,,,"Ik neem aan iets met de bijen ",Quelque chose avec les abeilles,,,,
,answer,html.Page,9_2,,,form submission,4641,602406,602394,602419,607060,607062,2023-11-28T08:22:33.869Z,607073,ZWS6B0Hjaw,full,klassikaal_3,652fe10cdc68ac1c61cf9cec,participant,Geert,,,,,,,,,,,,,,,,,,,,,,,,
,farm2,flow.Sequence,9,,,completion,62928,544124,544116,544132,607060,607063,2023-11-28T08:22:33.870Z,607073,ZWS6B0Hjaw,full,klassikaal_3,652fe10cdc68ac1c61cf9cec,participant,Geert,,,,,,,,,,,,,,,,,,,,,,,,
,prepare,html.Page,10_0,,,form submission,2135,607065,607057,607073,609208,609210,2023-11-28T08:22:36.016Z,609231,ZWS6B0Hjaw,full,klassikaal_3,652fe10cdc68ac1c61cf9cec,participant,Geert,,,,,,,,,,,,,,,,,,,,,,,,
,park1-image,html.Page,10_1,,,form submission,73530,609210,609206,609231,682761,682764,2023-11-28T08:23:49.571Z,682779,ZWS6B0Hjaw,full,klassikaal_3,652fe10cdc68ac1c61cf9cec,participant,Geert,,,,,,,,,,,,,,,,,,,,,"1 bloempot ",1 pot de fleur,,
,answer,html.Page,10_2,,,form submission,1871,682765,682754,682779,684650,684652,2023-11-28T08:23:51.459Z,684664,ZWS6B0Hjaw,full,klassikaal_3,652fe10cdc68ac1c61cf9cec,participant,Geert,,,,,,,,,,,,,,,,,,,,,,,,
,park1,flow.Sequence,10,,,completion,77577,607064,607057,607073,684650,684654,2023-11-28T08:23:51.460Z,684664,ZWS6B0Hjaw,full,klassikaal_3,652fe10cdc68ac1c61cf9cec,participant,Geert,,,,,,,,,,,,,,,,,,,,,,,,
,prepare,html.Page,11_0,,,form submission,8867,684654,684647,684664,693531,693532,2023-11-28T08:24:00.339Z,693557,ZWS6B0Hjaw,full,klassikaal_3,652fe10cdc68ac1c61cf9cec,participant,Geert,,,,,,,,,,,,,,,,,,,,,,,,
,park2-image,html.Page,11_1,,,form submission,33488,693533,693532,693557,727045,727050,2023-11-28T08:24:33.856Z,727063,ZWS6B0Hjaw,full,klassikaal_3,652fe10cdc68ac1c61cf9cec,participant,Geert,,,,,,,,,,,,,,,,,,,,,,,"Er ontbreekt 1 bloempot ",Il manque 1 pot de fleurs
,answer,html.Page,11_2,,,form submission,3746,727050,727039,727063,730809,730811,2023-11-28T08:24:37.618Z,730824,ZWS6B0Hjaw,full,klassikaal_3,652fe10cdc68ac1c61cf9cec,participant,Geert,,,,,,,,,,,,,,,,,,,,,,,,
,park2,flow.Sequence,11,,,completion,46145,684654,684647,684664,730809,730812,2023-11-28T08:24:37.619Z,730824,ZWS6B0Hjaw,full,klassikaal_3,652fe10cdc68ac1c61cf9cec,participant,Geert,,,,,,,,,,,,,,,,,,,,,,,,
,bedankt,html.Page,12,,,timeout,3002,730813,730808,730824,733817,733828,2023-11-28T08:24:40.635Z,733826,ZWS6B0Hjaw,full,klassikaal_3,652fe10cdc68ac1c61cf9cec,participant,Geert,,,,,,,,,,,,,,,,,,,,,,,,
,root,flow.Sequence,,,,completion,731252,2551,2491,2565,733817,733830,2023-11-28T08:24:40.637Z,733826,ZWS6B0Hjaw,full,klassikaal_3,652fe10cdc68ac1c61cf9cec,participant,Geert,,,,,,,,,,,,,,,,,,,,,,,,