meta,sender,sender_type,sender_id,Order,,ended_on,duration,time_run,time_render,time_show,time_end,time_commit,timestamp,time_switch,openLabId,type,task,project,status,code,confirmationCode,participant_L1,university_level,age,gender,gender_other,try-out_answer_L2,try-out_answer_L1,beach1_answer_L2,beach1_answer_L1,street1_answer_L2,street1_answer_L1,farm1_answer_L2,farm1_answer_L1,beach2_answer_L2,beach2_answer_L1,street2_answer_L2,street2_answer_L1,farm2_answer_L2,farm2_answer_L1,park1_answer_L2,park1_answer_L1,park2_answer_L2,park2_answer_L1
"{""labjs_version"":""20.2.4"",""labjs_build"":{""flavor"":""production"",""commit"":""f5b4a49f956347addd546a832a3327688c2c0fef""},""location"":""https://open-lab.online/test/klassikaal_3/6565a0c8fa275e2b7bdecdfe"",""userAgent"":""Mozilla/5.0 (Macintosh; Intel Mac OS X 10_15_7) AppleWebKit/537.36 (KHTML, like Gecko) Chrome/119.0.0.0 Safari/537.36"",""platform"":""MacIntel"",""language"":""fr-FR"",""locale"":""fr"",""timeZone"":""Europe/Brussels"",""timezoneOffset"":-60,""screen_width"":1440,""screen_height"":900,""scroll_width"":1440,""scroll_height"":642,""window_innerWidth"":1440,""window_innerHeight"":690,""devicePixelRatio"":2}",ID,html.Page,0,2,,form submission,11860.601999964238,1936.8999999761581,1875,1924.998,13785.599999964237,13786.299999952316,2023-11-28T08:12:06.077Z,13792.146,nzlvkwLnjH,full,klassikaal_3,652fe10cdc68ac1c61cf9cec,participant,Lucie,213678,,,,,,,,,,,,,,,,,,,,,,,
,language,html.Page,1,,,form submission,25042.753999976158,13786.5,13775.48,13792.146,38834.89999997616,38835.59999996424,2023-11-28T08:12:31.125Z,38842.97,nzlvkwLnjH,full,klassikaal_3,652fe10cdc68ac1c61cf9cec,participant,Lucie,,Frans,BA,,,,,,,,,,,,,,,,,,,,,
,age-gender,html.Page,2,,,form submission,27560.229999988078,38835.799999952316,38826.304,38842.97,66403.19999998808,66403.69999998808,2023-11-28T08:12:58.692Z,66410.15,nzlvkwLnjH,full,klassikaal_3,652fe10cdc68ac1c61cf9cec,participant,Lucie,,,,18,v,,,,,,,,,,,,,,,,,,,
,prepare,html.Page,3_0,,,form submission,204300.64999995232,66404,66393.484,66410.15,270710.7999999523,270711.2999999523,2023-11-28T08:16:22.992Z,270720.414,nzlvkwLnjH,full,klassikaal_3,652fe10cdc68ac1c61cf9cec,participant,Lucie,,,,,,,,,,,,,,,,,,,,,,,,
,try-out-image,html.Page,3_1,,,form submission,16391.98599997617,270711.5,270703.748,270720.414,287112.39999997616,287112.89999997616,2023-11-28T08:16:39.393Z,287119.901,nzlvkwLnjH,full,klassikaal_3,652fe10cdc68ac1c61cf9cec,participant,Lucie,,,,,,,,,,,,,,,,,,,,,,,,
,answer,html.Page,3_2,,,form submission,3242.3989999523037,287113.09999996424,287103.235,287119.901,290362.2999999523,290362.7999999523,2023-11-28T08:16:42.643Z,290369.771,nzlvkwLnjH,full,klassikaal_3,652fe10cdc68ac1c61cf9cec,participant,Lucie,,,,,,,,,,,,,,,,,,,,,,,,
,try-out,flow.Sequence,3,,,completion,223952.14999995232,66403.89999997616,66393.484,66410.15,290362.2999999523,290364.7999999523,2023-11-28T08:16:42.645Z,290369.771,nzlvkwLnjH,full,klassikaal_3,652fe10cdc68ac1c61cf9cec,participant,Lucie,,,,,,,,,,,,,,,,,,,,,,,,
,prepare,html.Page,4_0,,,form submission,33460.32899996423,290365,290353.105,290369.771,323830.09999996424,323830.6999999881,2023-11-28T08:17:16.109Z,323838.695,nzlvkwLnjH,full,klassikaal_3,652fe10cdc68ac1c61cf9cec,participant,Lucie,,,,,,,,,,,,,,,,,,,,,,,,
,beach1-image,html.Page,4_1,,,form submission,15424.704999976151,323831,323822.029,323838.695,339263.39999997616,339263.89999997616,2023-11-28T08:17:31.542Z,339272.956,nzlvkwLnjH,full,klassikaal_3,652fe10cdc68ac1c61cf9cec,participant,Lucie,,,,,,,,,de vissen,les poissons,,,,,,,,,,,,,,
,answer,html.Page,4_2,,,form submission,8958.043999999994,339264.09999996424,339256.29,339272.956,348231,348231.6999999881,2023-11-28T08:17:40.509Z,348240.484,nzlvkwLnjH,full,klassikaal_3,652fe10cdc68ac1c61cf9cec,participant,Lucie,,,,,,,,,,,,,,,,,,,,,,,,
,beach1,flow.Sequence,4,,,completion,57861.22899999999,290364.89999997616,290353.105,290369.771,348231,348232.09999996424,2023-11-28T08:17:40.510Z,348240.484,nzlvkwLnjH,full,klassikaal_3,652fe10cdc68ac1c61cf9cec,participant,Lucie,,,,,,,,,,,,,,,,,,,,,,,,
,prepare,html.Page,5_0,,,form submission,26925.11599996424,348232.39999997616,348223.818,348240.484,375165.59999996424,375166.1999999881,2023-11-28T08:18:07.443Z,375175.082,nzlvkwLnjH,full,klassikaal_3,652fe10cdc68ac1c61cf9cec,participant,Lucie,,,,,,,,,,,,,,,,,,,,,,,,
,street1-image,html.Page,5_1,,,form submission,19380.617999988084,375166.5,375158.416,375175.082,394555.6999999881,394556.2999999523,2023-11-28T08:18:26.832Z,394557.72,nzlvkwLnjH,full,klassikaal_3,652fe10cdc68ac1c61cf9cec,participant,Lucie,,,,,,,,,,,de rode strapjes,les rayures rouges,,,,,,,,,,,,
,answer,html.Page,5_2,,,form submission,16092.579999952344,394556.59999996424,394541.054,394557.72,410650.2999999523,410650.89999997616,2023-11-28T08:18:42.926Z,410658.696,nzlvkwLnjH,full,klassikaal_3,652fe10cdc68ac1c61cf9cec,participant,Lucie,,,,,,,,,,,,,,,,,,,,,,,,
,street1,flow.Sequence,5,,,completion,62409.81599995232,348232.2999999523,348223.818,348240.484,410650.2999999523,410651.1999999881,2023-11-28T08:18:42.926Z,410658.696,nzlvkwLnjH,full,klassikaal_3,652fe10cdc68ac1c61cf9cec,participant,Lucie,,,,,,,,,,,,,,,,,,,,,,,,
,prepare,html.Page,6_0,,,form submission,24409.703999976162,410651.2999999523,410642.03,410658.696,435068.39999997616,435068.89999997616,2023-11-28T08:19:07.343Z,435077.177,nzlvkwLnjH,full,klassikaal_3,652fe10cdc68ac1c61cf9cec,participant,Lucie,,,,,,,,,,,,,,,,,,,,,,,,
,farm1-image,html.Page,6_1,,,form submission,1975.722999976133,435069.09999996424,435060.511,435077.177,437052.89999997616,437053.2999999523,2023-11-28T08:19:09.327Z,437060.431,nzlvkwLnjH,full,klassikaal_3,652fe10cdc68ac1c61cf9cec,participant,Lucie,,,,,,,,,,,,,,,,,,,,,,,,
,answer,html.Page,6_2,,,form submission,17675.468999976176,437053.59999996424,437043.765,437060.431,454735.89999997616,454736.39999997616,2023-11-28T08:19:27.010Z,454743.843,nzlvkwLnjH,full,klassikaal_3,652fe10cdc68ac1c61cf9cec,participant,Lucie,,,,,,,,,,,,,,,,,,,,,,,,
,farm1,flow.Sequence,6,,,completion,44077.20399997616,410651.2999999523,410642.03,410658.696,454735.89999997616,454736.59999996424,2023-11-28T08:19:27.010Z,454743.843,nzlvkwLnjH,full,klassikaal_3,652fe10cdc68ac1c61cf9cec,participant,Lucie,,,,,,,,,,,,,,,,,,,,,,,,
,prepare,html.Page,7_0,,,form submission,50011.356999988086,454736.89999997616,454727.177,454743.843,504755.1999999881,504755.6999999881,2023-11-28T08:20:17.027Z,504762.776,nzlvkwLnjH,full,klassikaal_3,652fe10cdc68ac1c61cf9cec,participant,Lucie,,,,,,,,,,,,,,,,,,,,,,,,
,beach2-image,html.Page,7_1,,,form submission,2225.4239999880665,504755.89999997616,504746.11,504762.776,506988.1999999881,506988.5,2023-11-28T08:20:19.260Z,506996.02,nzlvkwLnjH,full,klassikaal_3,652fe10cdc68ac1c61cf9cec,participant,Lucie,,,,,,,,,,,,,,,,,,,,,,,,
,answer,html.Page,7_2,,,form submission,5891.8799999761395,506988.6999999881,506979.354,506996.02,512887.89999997616,512888.2999999523,2023-11-28T08:20:25.159Z,512895.784,nzlvkwLnjH,full,klassikaal_3,652fe10cdc68ac1c61cf9cec,participant,Lucie,,,,,,,,,,,,,,,,,,,,,,,,
,beach2,flow.Sequence,7,,,completion,58144.056999976165,454736.89999997616,454727.177,454743.843,512887.89999997616,512888.59999996424,2023-11-28T08:20:25.160Z,512895.784,nzlvkwLnjH,full,klassikaal_3,652fe10cdc68ac1c61cf9cec,participant,Lucie,,,,,,,,,,,,,,,,,,,,,,,,
,prepare,html.Page,8_0,,,form submission,5759.515999952331,512888.7999999523,512879.118,512895.784,518655.2999999523,518655.7999999523,2023-11-28T08:20:30.927Z,518664.758,nzlvkwLnjH,full,klassikaal_3,652fe10cdc68ac1c61cf9cec,participant,Lucie,,,,,,,,,,,,,,,,,,,,,,,,
,street2-image,html.Page,8_1,,,form submission,37592.24200000003,518656,518648.092,518664.758,556257,556257.2999999523,2023-11-28T08:21:08.527Z,556265.78,nzlvkwLnjH,full,klassikaal_3,652fe10cdc68ac1c61cf9cec,participant,Lucie,,,,,,,,,,,,,,,,,,,,,,,,
,answer,html.Page,8_2,,,form submission,23324.91999998805,556257.5999999642,556249.114,556265.78,579590.6999999881,579591,2023-11-28T08:21:31.859Z,579600.676,nzlvkwLnjH,full,klassikaal_3,652fe10cdc68ac1c61cf9cec,participant,Lucie,,,,,,,,,,,,,,,,,,,,,,,,
,street2,flow.Sequence,8,,,completion,66694.9159999881,512888.7999999523,512879.118,512895.784,579590.6999999881,579591.2999999523,2023-11-28T08:21:31.860Z,579600.676,nzlvkwLnjH,full,klassikaal_3,652fe10cdc68ac1c61cf9cec,participant,Lucie,,,,,,,,,,,,,,,,,,,,,,,,
,prepare,html.Page,9_0,,,form submission,39659.22399997618,579591.3999999762,579584.01,579600.676,619259.8999999762,619260.2999999523,2023-11-28T08:22:11.527Z,619268.326,nzlvkwLnjH,full,klassikaal_3,652fe10cdc68ac1c61cf9cec,participant,Lucie,,,,,,,,,,,,,,,,,,,,,,,,
,farm2-image,html.Page,9_1,,,form submission,1358.4739999523154,619260.5999999642,619251.66,619268.326,620626.7999999523,620627.1999999881,2023-11-28T08:22:12.894Z,620634.938,nzlvkwLnjH,full,klassikaal_3,652fe10cdc68ac1c61cf9cec,participant,Lucie,,,,,,,,,,,,,,,,,,,,,,,,
,answer,html.Page,9_2,,,form submission,12141.562000000034,620627.2999999523,620618.272,620634.938,632776.5,632777.0999999642,2023-11-28T08:22:25.043Z,632785.543,nzlvkwLnjH,full,klassikaal_3,652fe10cdc68ac1c61cf9cec,participant,Lucie,,,,,,,,,,,,,,,,,,,,,,,,
,farm2,flow.Sequence,9,,,completion,53175.82400000002,579591.3999999762,579584.01,579600.676,632776.5,632777.3999999762,2023-11-28T08:22:25.044Z,632785.543,nzlvkwLnjH,full,klassikaal_3,652fe10cdc68ac1c61cf9cec,participant,Lucie,,,,,,,,,,,,,,,,,,,,,,,,
,prepare,html.Page,10_0,,,form submission,45476.95700000005,632777.5999999642,632768.877,632785.543,678262.5,678262.8999999762,2023-11-28T08:23:10.527Z,678271.548,nzlvkwLnjH,full,klassikaal_3,652fe10cdc68ac1c61cf9cec,participant,Lucie,,,,,,,,,,,,,,,,,,,,,,,,
,park1-image,html.Page,10_1,,,form submission,13795.551999964286,678263,678254.882,678271.548,692067.0999999642,692067.5999999642,2023-11-28T08:23:24.332Z,692072.114,nzlvkwLnjH,full,klassikaal_3,652fe10cdc68ac1c61cf9cec,participant,Lucie,,,,,,,,,,,,,,,,,,,,,er is geen witte bloemen,il n'y a pas de fleurs blanches,,
,answer,html.Page,10_2,,,form submission,15908.285999976215,692067.7999999523,692055.448,692072.114,707980.3999999762,707980.7999999523,2023-11-28T08:23:40.244Z,707989.698,nzlvkwLnjH,full,klassikaal_3,652fe10cdc68ac1c61cf9cec,participant,Lucie,,,,,,,,,,,,,,,,,,,,,,,,
,park1,flow.Sequence,10,,,completion,75194.85699997621,632777.5,632768.877,632785.543,707980.3999999762,707981,2023-11-28T08:23:40.245Z,707989.698,nzlvkwLnjH,full,klassikaal_3,652fe10cdc68ac1c61cf9cec,participant,Lucie,,,,,,,,,,,,,,,,,,,,,,,,
,prepare,html.Page,11_0,,,form submission,38641.90199996426,707981.1999999881,707973.032,707989.698,746631.5999999642,746632.0999999642,2023-11-28T08:24:18.894Z,746641.036,nzlvkwLnjH,full,klassikaal_3,652fe10cdc68ac1c61cf9cec,participant,Lucie,,,,,,,,,,,,,,,,,,,,,,,,
,park2-image,html.Page,11_1,,,form submission,14246.763999952353,746632.2999999523,746624.37,746641.036,760887.7999999523,760888.1999999881,2023-11-28T08:24:33.150Z,760891.893,nzlvkwLnjH,full,klassikaal_3,652fe10cdc68ac1c61cf9cec,participant,Lucie,,,,,,,,,,,,,,,,,,,,,,,er is geen witte bloemen,il n'y a pas de fleurs blanches
,answer,html.Page,11_2,,,form submission,5241.206999964197,760888.5,760875.227,760891.893,766133.0999999642,766133.5,2023-11-28T08:24:38.395Z,766141.683,nzlvkwLnjH,full,klassikaal_3,652fe10cdc68ac1c61cf9cec,participant,Lucie,,,,,,,,,,,,,,,,,,,,,,,,
,park2,flow.Sequence,11,,,completion,58143.40199996426,707981.1999999881,707973.032,707989.698,766133.0999999642,766133.8999999762,2023-11-28T08:24:38.395Z,766141.683,nzlvkwLnjH,full,klassikaal_3,652fe10cdc68ac1c61cf9cec,participant,Lucie,,,,,,,,,,,,,,,,,,,,,,,,
,bedankt,html.Page,12,,,timeout,3000.646999999997,766134,766125.017,766141.683,769125.664,769130.8999999762,2023-11-28T08:24:41.392Z,769142.33,nzlvkwLnjH,full,klassikaal_3,652fe10cdc68ac1c61cf9cec,participant,Lucie,,,,,,,,,,,,,,,,,,,,,,,,
,root,flow.Sequence,,,,completion,767200.666,1936.7999999523163,1875,1924.998,769125.664,769131.3999999762,2023-11-28T08:24:41.392Z,769142.33,nzlvkwLnjH,full,klassikaal_3,652fe10cdc68ac1c61cf9cec,participant,Lucie,,,,,,,,,,,,,,,,,,,,,,,,