meta,sender,sender_type,sender_id,Order,,ended_on,duration,time_run,time_render,time_show,time_end,time_commit,timestamp,time_switch,openLabId,type,task,project,status,code,confirmationCode,participant_L1,university_level,age,gender,gender_other,try-out_answer_L2,try-out_answer_L1,beach1_answer_L2,beach1_answer_L1,street1_answer_L2,street1_answer_L1,farm1_answer_L2,farm1_answer_L1,beach2_answer_L2,beach2_answer_L1,street2_answer_L2,street2_answer_L1,farm2_answer_L2,farm2_answer_L1,park1_answer_L2,park1_answer_L1,park2_answer_L2,park2_answer_L1
"{""labjs_version"":""20.2.4"",""labjs_build"":{""flavor"":""production"",""commit"":""f5b4a49f956347addd546a832a3327688c2c0fef""},""location"":""https://open-lab.online/test/klassikaal_3/6565a0c9fa275e2b7bdece00"",""userAgent"":""Mozilla/5.0 (Macintosh; Intel Mac OS X 10_15_7) AppleWebKit/537.36 (KHTML, like Gecko) Chrome/117.0.0.0 Safari/537.36"",""platform"":""MacIntel"",""language"":""fr-FR"",""locale"":""fr"",""timeZone"":""Europe/Brussels"",""timezoneOffset"":-60,""screen_width"":1440,""screen_height"":900,""scroll_width"":1440,""scroll_height"":648,""window_innerWidth"":1440,""window_innerHeight"":696,""devicePixelRatio"":1}",ID,html.Page,0,2,,form submission,11358.749999976159,2287.100000023842,2172.981,2289.65,13648.399999976158,13648.799999952316,2023-11-28T08:12:07.212Z,13657.068,fsUaXHjEaY,full,klassikaal_3,652fe10cdc68ac1c61cf9cec,participant,Fanny,976899,,,,,,,,,,,,,,,,,,,,,,,
,language,html.Page,1,,,form submission,28094.132000047684,13649.100000023842,13640.401,13657.068,41751.200000047684,41751.700000047684,2023-11-28T08:12:35.315Z,41759.084,fsUaXHjEaY,full,klassikaal_3,652fe10cdc68ac1c61cf9cec,participant,Fanny,,Frans,BA,,,,,,,,,,,,,,,,,,,,,
,age-gender,html.Page,2,,,form submission,23781.815999976156,41752.10000002384,41742.417,41759.084,65540.89999997616,65541.29999995232,2023-11-28T08:12:59.105Z,65543.9,fsUaXHjEaY,full,klassikaal_3,652fe10cdc68ac1c61cf9cec,participant,Fanny,,,,19,v,,,,,,,,,,,,,,,,,,,
,prepare,html.Page,3_0,,,form submission,171826.20000002385,65542.10000002384,65527.233,65543.9,237370.10000002384,237370.29999995232,2023-11-28T08:15:50.940Z,237372.591,fsUaXHjEaY,full,klassikaal_3,652fe10cdc68ac1c61cf9cec,participant,Fanny,,,,,,,,,,,,,,,,,,,,,,,,
,try-out-image,html.Page,3_1,,,form submission,35509.6090000477,237370.5,237355.924,237372.591,272882.2000000477,272882.5,2023-11-28T08:16:26.453Z,272891.476,fsUaXHjEaY,full,klassikaal_3,652fe10cdc68ac1c61cf9cec,participant,Fanny,,,,,,,,,,,,,,,,,,,,,,,,
,answer,html.Page,3_2,,,form submission,46564.523999999976,272882.60000002384,272874.809,272891.476,319456,319456.2999999523,2023-11-28T08:17:13.028Z,319459.074,fsUaXHjEaY,full,klassikaal_3,652fe10cdc68ac1c61cf9cec,participant,Fanny,,,,,,,,,,,,,,,,,,,,,,,,
,try-out,flow.Sequence,3,,,completion,253912.1,65542,65527.233,65543.9,319456,319459,2023-11-28T08:17:13.031Z,319459.074,fsUaXHjEaY,full,klassikaal_3,652fe10cdc68ac1c61cf9cec,participant,Fanny,,,,,,,,,,,,,,,,,,,,,,,,
,prepare,html.Page,4_0,,,form submission,1060.725999952294,319459.2999999523,319442.407,319459.074,320519.7999999523,320520.2000000477,2023-11-28T08:17:14.092Z,320528.335,fsUaXHjEaY,full,klassikaal_3,652fe10cdc68ac1c61cf9cec,participant,Fanny,,,,,,,,,,,,,,,,,,,,,,,,
,beach1-image,html.Page,4_1,,,form submission,29892.66499999998,320520.2999999523,320511.668,320528.335,350421,350421.2000000477,2023-11-28T08:17:43.994Z,350430.458,fsUaXHjEaY,full,klassikaal_3,652fe10cdc68ac1c61cf9cec,participant,Fanny,,,,,,,,,,,,,,,,,,,,,,,,
,answer,html.Page,4_2,,,form submission,4024.841999952332,350421.39999997616,350413.791,350430.458,354455.2999999523,354455.7999999523,2023-11-28T08:17:48.028Z,354463.872,fsUaXHjEaY,full,klassikaal_3,652fe10cdc68ac1c61cf9cec,participant,Fanny,,,,,,,,,,,,,,,,,,,,,,,,
,beach1,flow.Sequence,4,,,completion,34996.225999952294,319459.2000000477,319442.407,319459.074,354455.2999999523,354456.10000002384,2023-11-28T08:17:48.029Z,354463.872,fsUaXHjEaY,full,klassikaal_3,652fe10cdc68ac1c61cf9cec,participant,Fanny,,,,,,,,,,,,,,,,,,,,,,,,
,prepare,html.Page,5_0,,,form submission,21745.728000023868,354456.39999997616,354447.205,354463.872,376209.60000002384,376209.89999997616,2023-11-28T08:18:09.783Z,376215.549,fsUaXHjEaY,full,klassikaal_3,652fe10cdc68ac1c61cf9cec,participant,Fanny,,,,,,,,,,,,,,,,,,,,,,,,
,street1-image,html.Page,5_1,,,form submission,31142.35099997616,376210.10000002384,376198.882,376215.549,407357.89999997616,407358.10000002384,2023-11-28T08:18:40.932Z,407367.545,fsUaXHjEaY,full,klassikaal_3,652fe10cdc68ac1c61cf9cec,participant,Fanny,,,,,,,,,,,wite en rode streppen,"rayures blanches et rouges ",,,,,,,,,,,,
,answer,html.Page,5_2,,,form submission,7758.754999952333,407358.2999999523,407350.878,407367.545,415126.2999999523,415126.7000000477,2023-11-28T08:18:48.701Z,415134.367,fsUaXHjEaY,full,klassikaal_3,652fe10cdc68ac1c61cf9cec,participant,Fanny,,,,,,,,,,,,,,,,,,,,,,,,
,street1,flow.Sequence,5,,,completion,60662.42799995234,354456.2999999523,354447.205,354463.872,415126.2999999523,415126.89999997616,2023-11-28T08:18:48.701Z,415134.367,fsUaXHjEaY,full,klassikaal_3,652fe10cdc68ac1c61cf9cec,participant,Fanny,,,,,,,,,,,,,,,,,,,,,,,,
,prepare,html.Page,6_0,,,form submission,12663.432999952289,415127.10000002384,415117.7,415134.367,427797.7999999523,427798.2999999523,2023-11-28T08:19:01.373Z,427802.4,fsUaXHjEaY,full,klassikaal_3,652fe10cdc68ac1c61cf9cec,participant,Fanny,,,,,,,,,,,,,,,,,,,,,,,,
,farm1-image,html.Page,6_1,,,form submission,17509.80000004766,427798.5,427785.733,427802.4,445312.2000000477,445312.5,2023-11-28T08:19:18.888Z,445320.196,fsUaXHjEaY,full,klassikaal_3,652fe10cdc68ac1c61cf9cec,participant,Fanny,,,,,,,,,,,,,,,,,,,,,,,,
,answer,html.Page,6_2,,,form submission,17159.304000000004,445312.7999999523,445303.529,445320.196,462479.5,462479.89999997616,2023-11-28T08:19:36.056Z,462488.136,fsUaXHjEaY,full,klassikaal_3,652fe10cdc68ac1c61cf9cec,participant,Fanny,,,,,,,,,,,,,,,,,,,,,,,,
,farm1,flow.Sequence,6,,,completion,47345.13299999997,415127.10000002384,415117.7,415134.367,462479.5,462480.2999999523,2023-11-28T08:19:36.056Z,462488.136,fsUaXHjEaY,full,klassikaal_3,652fe10cdc68ac1c61cf9cec,participant,Fanny,,,,,,,,,,,,,,,,,,,,,,,,
,prepare,html.Page,7_0,,,form submission,27139.464000023843,462480.5,462471.469,462488.136,489627.60000002384,489627.7999999523,2023-11-28T08:20:03.204Z,489639.81,fsUaXHjEaY,full,klassikaal_3,652fe10cdc68ac1c61cf9cec,participant,Fanny,,,,,,,,,,,,,,,,,,,,,,,,
,beach2-image,html.Page,7_1,,,form submission,28789.890000047686,489627.89999997616,489623.143,489639.81,518429.7000000477,518429.7999999523,2023-11-28T08:20:32.007Z,518441.912,fsUaXHjEaY,full,klassikaal_3,652fe10cdc68ac1c61cf9cec,participant,Fanny,,,,,,,,,,,,,,,alleen 1 man,il n'y a qu,,,,,,,,
,answer,html.Page,7_2,,,form submission,2594.887999952305,518430,518425.245,518441.912,521036.7999999523,521037.10000002384,2023-11-28T08:20:34.615Z,521041.964,fsUaXHjEaY,full,klassikaal_3,652fe10cdc68ac1c61cf9cec,participant,Fanny,,,,,,,,,,,,,,,,,,,,,,,,
,beach2,flow.Sequence,7,,,completion,58548.66399995232,462480.39999997616,462471.469,462488.136,521036.7999999523,521037.39999997616,2023-11-28T08:20:34.615Z,521041.964,fsUaXHjEaY,full,klassikaal_3,652fe10cdc68ac1c61cf9cec,participant,Fanny,,,,,,,,,,,,,,,,,,,,,,,,
,prepare,html.Page,8_0,,,form submission,57963.03600000002,521037.60000002384,521025.297,521041.964,579005,579005.2999999523,2023-11-28T08:21:32.585Z,579012.878,fsUaXHjEaY,full,klassikaal_3,652fe10cdc68ac1c61cf9cec,participant,Fanny,,,,,,,,,,,,,,,,,,,,,,,,
,street2-image,html.Page,8_1,,,form submission,2244.3220000476576,579005.3999999762,578996.211,579012.878,581257.2000000477,581257.6000000238,2023-11-28T08:21:34.837Z,581262.923,fsUaXHjEaY,full,klassikaal_3,652fe10cdc68ac1c61cf9cec,participant,Fanny,,,,,,,,,,,,,,,,,,,,,,,,
,answer,html.Page,8_2,,,form submission,1377.6770000238903,581258.2000000477,581246.256,581262.923,582640.6000000238,582640.8999999762,2023-11-28T08:21:36.220Z,582646.284,fsUaXHjEaY,full,klassikaal_3,652fe10cdc68ac1c61cf9cec,participant,Fanny,,,,,,,,,,,,,,,,,,,,,,,,
,street2,flow.Sequence,8,,,completion,61598.636000023864,521037.5,521025.297,521041.964,582640.6000000238,582641.1000000238,2023-11-28T08:21:36.221Z,582646.284,fsUaXHjEaY,full,klassikaal_3,652fe10cdc68ac1c61cf9cec,participant,Fanny,,,,,,,,,,,,,,,,,,,,,,,,
,prepare,html.Page,9_0,,,form submission,30426.816000023857,582641.2000000477,582629.617,582646.284,613073.1000000238,613073.3999999762,2023-11-28T08:22:06.654Z,613081.914,fsUaXHjEaY,full,klassikaal_3,652fe10cdc68ac1c61cf9cec,participant,Fanny,,,,,,,,,,,,,,,,,,,,,,,,
,farm2-image,html.Page,9_1,,,form submission,9125.686000023852,613073.5,613065.247,613081.914,622207.6000000238,622207.8999999762,2023-11-28T08:22:15.789Z,622215.43,fsUaXHjEaY,full,klassikaal_3,652fe10cdc68ac1c61cf9cec,participant,Fanny,,,,,,,,,,,,,,,,,,,,,,,,
,answer,html.Page,9_2,,,form submission,17628.770000047632,622208.2000000477,622198.763,622215.43,639844.2000000477,639844.5,2023-11-28T08:22:33.426Z,639850.372,fsUaXHjEaY,full,klassikaal_3,652fe10cdc68ac1c61cf9cec,participant,Fanny,,,,,,,,,,,,,,,,,,,,,,,,
,farm2,flow.Sequence,9,,,completion,57197.9160000477,582641.2000000477,582629.617,582646.284,639844.2000000477,639844.7999999523,2023-11-28T08:22:33.426Z,639850.372,fsUaXHjEaY,full,klassikaal_3,652fe10cdc68ac1c61cf9cec,participant,Fanny,,,,,,,,,,,,,,,,,,,,,,,,
,prepare,html.Page,10_0,,,form submission,30243.427999952342,639845,639833.705,639850.372,670093.7999999523,670094.1000000238,2023-11-28T08:23:03.676Z,670102.482,fsUaXHjEaY,full,klassikaal_3,652fe10cdc68ac1c61cf9cec,participant,Fanny,,,,,,,,,,,,,,,,,,,,,,,,
,park1-image,html.Page,10_1,,,form submission,33047.317999952356,670094.2000000477,670085.815,670102.482,703149.7999999523,703150,2023-11-28T08:23:36.733Z,703171.351,fsUaXHjEaY,full,klassikaal_3,652fe10cdc68ac1c61cf9cec,participant,Fanny,,,,,,,,,,,,,,,,,,,,,,,,
,answer,html.Page,10_2,,,form submission,8260.84900004766,703150.3999999762,703154.684,703171.351,711432.2000000477,711432.5,2023-11-28T08:23:45.016Z,711438.646,fsUaXHjEaY,full,klassikaal_3,652fe10cdc68ac1c61cf9cec,participant,Fanny,,,,,,,,,,,,,,,,,,,,,,,,
,park1,flow.Sequence,10,,,completion,71581.82800004771,639845,639833.705,639850.372,711432.2000000477,711432.7000000477,2023-11-28T08:23:45.016Z,711438.646,fsUaXHjEaY,full,klassikaal_3,652fe10cdc68ac1c61cf9cec,participant,Fanny,,,,,,,,,,,,,,,,,,,,,,,,
,prepare,html.Page,11_0,,,form submission,29426.85400000005,711432.8999999762,711421.979,711438.646,740865.5,740865.7000000477,2023-11-28T08:24:14.450Z,740872.568,fsUaXHjEaY,full,klassikaal_3,652fe10cdc68ac1c61cf9cec,participant,Fanny,,,,,,,,,,,,,,,,,,,,,,,,
,park2-image,html.Page,11_1,,,form submission,15126.43200000003,740865.7999999523,740855.901,740872.568,755999,755999.1000000238,2023-11-28T08:24:29.584Z,756008.22,fsUaXHjEaY,full,klassikaal_3,652fe10cdc68ac1c61cf9cec,participant,Fanny,,,,,,,,,,,,,,,,,,,,,,,,
,answer,html.Page,11_2,,,form submission,14529.179999976186,755999.3999999762,755991.553,756008.22,770537.3999999762,770537.6000000238,2023-11-28T08:24:44.123Z,770542.394,fsUaXHjEaY,full,klassikaal_3,652fe10cdc68ac1c61cf9cec,participant,Fanny,,,,,,,,,,,,,,,,,,,,,,,,
,park2,flow.Sequence,11,,,completion,59098.75399997621,711432.7000000477,711421.979,711438.646,770537.3999999762,770537.8999999762,2023-11-28T08:24:44.123Z,770542.394,fsUaXHjEaY,full,klassikaal_3,652fe10cdc68ac1c61cf9cec,participant,Fanny,,,,,,,,,,,,,,,,,,,,,,,,
,bedankt,html.Page,12,,,timeout,3000.609999999986,770538.1000000238,770525.727,770542.394,773526.337,773530.2000000477,2023-11-28T08:24:47.115Z,773543.004,fsUaXHjEaY,full,klassikaal_3,652fe10cdc68ac1c61cf9cec,participant,Fanny,,,,,,,,,,,,,,,,,,,,,,,,
,root,flow.Sequence,,,,completion,771236.687,2286.7999999523163,2172.981,2289.65,773526.337,773530.5,2023-11-28T08:24:47.116Z,773543.004,fsUaXHjEaY,full,klassikaal_3,652fe10cdc68ac1c61cf9cec,participant,Fanny,,,,,,,,,,,,,,,,,,,,,,,,