meta,sender,sender_type,sender_id,Order,,ended_on,duration,time_run,time_render,time_show,time_end,time_commit,timestamp,time_switch,openLabId,type,task,project,status,code,confirmationCode,participant_L1,university_level,age,gender,gender_other,try-out_answer_L2,try-out_answer_L1,beach1_answer_L2,beach1_answer_L1,street1_answer_L2,street1_answer_L1,farm1_answer_L2,farm1_answer_L1,beach2_answer_L2,beach2_answer_L1,street2_answer_L2,street2_answer_L1,farm2_answer_L2,farm2_answer_L1,park1_answer_L2,park1_answer_L1,park2_answer_L2,park2_answer_L1
"{""labjs_version"":""20.2.4"",""labjs_build"":{""flavor"":""production"",""commit"":""f5b4a49f956347addd546a832a3327688c2c0fef""},""location"":""https://open-lab.online/test/klassikaal_3/6565a0cffa275e2b7bdece04"",""userAgent"":""Mozilla/5.0 (Macintosh; Intel Mac OS X 10_15_7) AppleWebKit/605.1.15 (KHTML, like Gecko) Version/17.1.1 Safari/605.1.15"",""platform"":""MacIntel"",""language"":""fr-FR"",""locale"":""fr-FR"",""timeZone"":""Europe/Brussels"",""timezoneOffset"":-60,""screen_width"":1024,""screen_height"":1366,""scroll_width"":1366,""scroll_height"":933,""window_innerWidth"":1366,""window_innerHeight"":950,""devicePixelRatio"":2}",ID,html.Page,0,2,,form submission,4249.000000000001,1562,1564,1577,5826.000000000001,5827,2023-11-28T08:12:04.849Z,5846,Po4H4W2IhX,full,klassikaal_3,652fe10cdc68ac1c61cf9cec,participant,Colleen,200061,,,,,,,,,,,,,,,,,,,,,,,
,language,html.Page,1,,,form submission,31608,5827,5828,5846,37454,37454,2023-11-28T08:12:36.476Z,37481,Po4H4W2IhX,full,klassikaal_3,652fe10cdc68ac1c61cf9cec,participant,Colleen,,Frans,BA,,,,,,,,,,,,,,,,,,,,,
,age-gender,html.Page,2,,,form submission,22943,37454,37465,37481,60424,60424,2023-11-28T08:12:59.446Z,60428,Po4H4W2IhX,full,klassikaal_3,652fe10cdc68ac1c61cf9cec,participant,Colleen,,,,19,v,,,,,,,,,,,,,,,,,,,
,prepare,html.Page,3_0,,,form submission,171334,60424,60425,60428,231762,231763,2023-11-28T08:15:50.782Z,231812,Po4H4W2IhX,full,klassikaal_3,652fe10cdc68ac1c61cf9cec,participant,Colleen,,,,,,,,,,,,,,,,,,,,,,,,
,try-out-image,html.Page,3_1,,,form submission,36434,231763,231766,231812,268246,268246,2023-11-28T08:16:27.265Z,268250,Po4H4W2IhX,full,klassikaal_3,652fe10cdc68ac1c61cf9cec,participant,Colleen,,,,,,,,,,,,,,,,,,,,,,,,
,answer,html.Page,3_2,,,form submission,5546,268247,268248,268250,273796,273796,2023-11-28T08:16:32.814Z,273804,Po4H4W2IhX,full,klassikaal_3,652fe10cdc68ac1c61cf9cec,participant,Colleen,,,,,,,,,,,,,,,,,,,,,,,,
,try-out,flow.Sequence,3,,,completion,213368,60424,60425,60428,273796,273797,2023-11-28T08:16:32.815Z,273804,Po4H4W2IhX,full,klassikaal_3,652fe10cdc68ac1c61cf9cec,participant,Colleen,,,,,,,,,,,,,,,,,,,,,,,,
,prepare,html.Page,4_0,,,form submission,40165,273797,273799,273804,313969,313969,2023-11-28T08:17:12.987Z,314027,Po4H4W2IhX,full,klassikaal_3,652fe10cdc68ac1c61cf9cec,participant,Colleen,,,,,,,,,,,,,,,,,,,,,,,,
,beach1-image,html.Page,4_1,,,form submission,30852,313970,313972,314027,344879,344880,2023-11-28T08:17:43.897Z,344895,Po4H4W2IhX,full,klassikaal_3,652fe10cdc68ac1c61cf9cec,participant,Colleen,,,,,,,,,,,,,,,,,,,,,,,,
,answer,html.Page,4_2,,,form submission,5846,344880,344881,344895,350741,350742,2023-11-28T08:17:49.758Z,350749,Po4H4W2IhX,full,klassikaal_3,652fe10cdc68ac1c61cf9cec,participant,Colleen,,,,,,,,,,,,,,,,,,,,,,,,
,beach1,flow.Sequence,4,,,completion,76937,273797,273799,273804,350741,350742,2023-11-28T08:17:49.759Z,350749,Po4H4W2IhX,full,klassikaal_3,652fe10cdc68ac1c61cf9cec,participant,Colleen,,,,,,,,,,,,,,,,,,,,,,,,
,prepare,html.Page,5_0,,,form submission,22164,350742,350744,350749,372913,372913,2023-11-28T08:18:11.929Z,372945,Po4H4W2IhX,full,klassikaal_3,652fe10cdc68ac1c61cf9cec,participant,Colleen,,,,,,,,,,,,,,,,,,,,,,,,
,street1-image,html.Page,5_1,,,form submission,29076,372913,372916,372945,402021,402021,2023-11-28T08:18:41.037Z,402036,Po4H4W2IhX,full,klassikaal_3,652fe10cdc68ac1c61cf9cec,participant,Colleen,,,,,,,,,,,Witte en rode strippen,Des bandes rouges et blanches,,,,,,,,,,,,
,answer,html.Page,5_2,,,form submission,3911,402021,402023,402036,405947,405947,2023-11-28T08:18:44.963Z,405964,Po4H4W2IhX,full,klassikaal_3,652fe10cdc68ac1c61cf9cec,participant,Colleen,,,,,,,,,,,,,,,,,,,,,,,,
,street1,flow.Sequence,5,,,completion,55198,350742,350744,350749,405947,405948.00000000006,2023-11-28T08:18:44.963Z,405964,Po4H4W2IhX,full,klassikaal_3,652fe10cdc68ac1c61cf9cec,participant,Colleen,,,,,,,,,,,,,,,,,,,,,,,,
,prepare,html.Page,6_0,,,form submission,17331,405948.00000000006,405949,405964,423295,423295,2023-11-28T08:19:02.311Z,423361,Po4H4W2IhX,full,klassikaal_3,652fe10cdc68ac1c61cf9cec,participant,Colleen,,,,,,,,,,,,,,,,,,,,,,,,
,farm1-image,html.Page,6_1,,,form submission,19282,423295,423308,423361,442643,442643,2023-11-28T08:19:21.658Z,442653,Po4H4W2IhX,full,klassikaal_3,652fe10cdc68ac1c61cf9cec,participant,Colleen,,,,,,,,,,,,,,,,,,,,,,,,
,answer,html.Page,6_2,,,form submission,4642,442643,442644,442653,447295,447295,2023-11-28T08:19:26.310Z,447306,Po4H4W2IhX,full,klassikaal_3,652fe10cdc68ac1c61cf9cec,participant,Colleen,,,,,,,,,,,,,,,,,,,,,,,,
,farm1,flow.Sequence,6,,,completion,41331,405948.00000000006,405949,405964,447295,447295,2023-11-28T08:19:26.310Z,447306,Po4H4W2IhX,full,klassikaal_3,652fe10cdc68ac1c61cf9cec,participant,Colleen,,,,,,,,,,,,,,,,,,,,,,,,
,prepare,html.Page,7_0,,,form submission,35942,447295,447296,447306,483248,483248,2023-11-28T08:20:02.263Z,483327,Po4H4W2IhX,full,klassikaal_3,652fe10cdc68ac1c61cf9cec,participant,Colleen,,,,,,,,,,,,,,,,,,,,,,,,
,beach2-image,html.Page,7_1,,,form submission,28693.99999999994,483248,483249,483327,512020.99999999994,512020.99999999994,2023-11-28T08:20:31.035Z,512036,Po4H4W2IhX,full,klassikaal_3,652fe10cdc68ac1c61cf9cec,participant,Colleen,,,,,,,,,,,,,,,Twee mannen die proberen ...,,,,,,,,,
,answer,html.Page,7_2,,,form submission,4008.999999999942,512020.99999999994,512023,512036,516044.99999999994,516046.00000000006,2023-11-28T08:20:35.060Z,516054,Po4H4W2IhX,full,klassikaal_3,652fe10cdc68ac1c61cf9cec,participant,Colleen,,,,,,,,,,,,,,,,,,,,,,,,
,beach2,flow.Sequence,7,,,completion,68738.99999999994,447295,447296,447306,516044.99999999994,516046.00000000006,2023-11-28T08:20:35.060Z,516054,Po4H4W2IhX,full,klassikaal_3,652fe10cdc68ac1c61cf9cec,participant,Colleen,,,,,,,,,,,,,,,,,,,,,,,,
,prepare,html.Page,8_0,,,form submission,26434,516046.00000000006,516048,516054,542488,542488,2023-11-28T08:21:01.502Z,542578,Po4H4W2IhX,full,klassikaal_3,652fe10cdc68ac1c61cf9cec,participant,Colleen,,,,,,,,,,,,,,,,,,,,,,,,
,street2-image,html.Page,8_1,,,form submission,33088,542488,542491,542578,575666,575667,2023-11-28T08:21:34.680Z,575679,Po4H4W2IhX,full,klassikaal_3,652fe10cdc68ac1c61cf9cec,participant,Colleen,,,,,,,,,,,,,,,,,,"Une des peluches ne porte pas ",,,,,,
,answer,html.Page,8_2,,,form submission,1002,575667,575668,575679,576681,576681,2023-11-28T08:21:35.694Z,576698,Po4H4W2IhX,full,klassikaal_3,652fe10cdc68ac1c61cf9cec,participant,Colleen,,,,,,,,,,,,,,,,,,,,,,,,
,street2,flow.Sequence,8,,,completion,60627,516046.00000000006,516048,516054,576681,576682,2023-11-28T08:21:35.695Z,576698,Po4H4W2IhX,full,klassikaal_3,652fe10cdc68ac1c61cf9cec,participant,Colleen,,,,,,,,,,,,,,,,,,,,,,,,
,prepare,html.Page,9_0,,,form submission,24766,576682,576683,576698,601464,601464,2023-11-28T08:22:00.476Z,601529,Po4H4W2IhX,full,klassikaal_3,652fe10cdc68ac1c61cf9cec,participant,Colleen,,,,,,,,,,,,,,,,,,,,,,,,
,farm2-image,html.Page,9_1,,,form submission,17347,601464,601466,601529,618876,618876,2023-11-28T08:22:17.889Z,618881,Po4H4W2IhX,full,klassikaal_3,652fe10cdc68ac1c61cf9cec,participant,Colleen,,,,,,,,,,,,,,,,,,,,,,,,
,answer,html.Page,9_2,,,form submission,14092,618877.0000000001,618878,618881,632973,632974,2023-11-28T08:22:31.986Z,632981,Po4H4W2IhX,full,klassikaal_3,652fe10cdc68ac1c61cf9cec,participant,Colleen,,,,,,,,,,,,,,,,,,,,,,,,
,farm2,flow.Sequence,9,,,completion,56275,576682,576683,576698,632973,632974,2023-11-28T08:22:31.986Z,632981,Po4H4W2IhX,full,klassikaal_3,652fe10cdc68ac1c61cf9cec,participant,Colleen,,,,,,,,,,,,,,,,,,,,,,,,
,prepare,html.Page,10_0,,,form submission,31961,632974,632976,632981,664942,664943,2023-11-28T08:23:03.954Z,665017,Po4H4W2IhX,full,klassikaal_3,652fe10cdc68ac1c61cf9cec,participant,Colleen,,,,,,,,,,,,,,,,,,,,,,,,
,park1-image,html.Page,10_1,,,form submission,35875,664943,664946,665017,700892,700893,2023-11-28T08:23:39.903Z,700938,Po4H4W2IhX,full,klassikaal_3,652fe10cdc68ac1c61cf9cec,participant,Colleen,,,,,,,,,,,,,,,,,,,,,,,,
,answer,html.Page,10_2,,,form submission,708,700893,700921,700938,701646,701646,2023-11-28T08:23:40.657Z,701655,Po4H4W2IhX,full,klassikaal_3,652fe10cdc68ac1c61cf9cec,participant,Colleen,,,,,,,,,,,,,,,,,,,,,,,,
,park1,flow.Sequence,10,,,completion,68665,632974,632976,632981,701646,701646,2023-11-28T08:23:40.657Z,701655,Po4H4W2IhX,full,klassikaal_3,652fe10cdc68ac1c61cf9cec,participant,Colleen,,,,,,,,,,,,,,,,,,,,,,,,
,prepare,html.Page,11_0,,,form submission,32088,701646,701647,701655,733743,733743,2023-11-28T08:24:12.754Z,733824,Po4H4W2IhX,full,klassikaal_3,652fe10cdc68ac1c61cf9cec,participant,Colleen,,,,,,,,,,,,,,,,,,,,,,,,
,park2-image,html.Page,11_1,,,form submission,18661,733744,733746,733824,752485,752485,2023-11-28T08:24:31.495Z,752533,Po4H4W2IhX,full,klassikaal_3,652fe10cdc68ac1c61cf9cec,participant,Colleen,,,,,,,,,,,,,,,,,,,,,,,Er is alleen één bloembak,Un seul pot de fleurs
,answer,html.Page,11_2,,,form submission,8687,752485,752487,752533,761220,761220,2023-11-28T08:24:40.230Z,761240,Po4H4W2IhX,full,klassikaal_3,652fe10cdc68ac1c61cf9cec,participant,Colleen,,,,,,,,,,,,,,,,,,,,,,,,
,park2,flow.Sequence,11,,,completion,59565,701646,701647,701655,761220,761221,2023-11-28T08:24:40.230Z,761240,Po4H4W2IhX,full,klassikaal_3,652fe10cdc68ac1c61cf9cec,participant,Colleen,,,,,,,,,,,,,,,,,,,,,,,,
,bedankt,html.Page,12,,,timeout,3002,761221,761223,761240,764225,764226,2023-11-28T08:24:43.236Z,764242,Po4H4W2IhX,full,klassikaal_3,652fe10cdc68ac1c61cf9cec,participant,Colleen,,,,,,,,,,,,,,,,,,,,,,,,
,root,flow.Sequence,,,,completion,762648,1562,1564,1577,764225,764226,2023-11-28T08:24:43.236Z,764242,Po4H4W2IhX,full,klassikaal_3,652fe10cdc68ac1c61cf9cec,participant,Colleen,,,,,,,,,,,,,,,,,,,,,,,,