meta,sender,sender_type,sender_id,Order,,ended_on,duration,time_run,time_render,time_show,time_end,time_commit,timestamp,time_switch,openLabId,type,task,project,status,code,confirmationCode,participant_L1,university_level,age,gender,gender_other,try-out_answer_L2,try-out_answer_L1,beach1_answer_L2,beach1_answer_L1,street1_answer_L2,street1_answer_L1,farm1_answer_L2,farm1_answer_L1,beach2_answer_L2,beach2_answer_L1,street2_answer_L2,street2_answer_L1,farm2_answer_L2,farm2_answer_L1,park1_answer_L2,park1_answer_L1,park2_answer_L2,park2_answer_L1
"{""labjs_version"":""20.2.4"",""labjs_build"":{""flavor"":""production"",""commit"":""f5b4a49f956347addd546a832a3327688c2c0fef""},""location"":""https://open-lab.online/test/klassikaal_3/6565a0e8fa275e2b7bdece1e"",""userAgent"":""Mozilla/5.0 (Windows NT 10.0; Win64; x64) AppleWebKit/537.36 (KHTML, like Gecko) Chrome/119.0.0.0 Safari/537.36 Edg/119.0.0.0"",""platform"":""Win32"",""language"":""fr"",""locale"":""fr-BE"",""timeZone"":""Europe/Brussels"",""timezoneOffset"":-60,""screen_width"":1536,""screen_height"":864,""scroll_width"":1482,""scroll_height"":706,""window_innerWidth"":1482,""window_innerHeight"":754,""devicePixelRatio"":1.25}",ID,html.Page,0,2,,form submission,8912.91799961853,2947.5999994277954,2845.092,2944.982,11857.89999961853,11858.5,2023-11-28T08:12:36.106Z,11869.921,v9qFAPBwML,full,klassikaal_3,652fe10cdc68ac1c61cf9cec,participant,"Koen ",972518,,,,,,,,,,,,,,,,,,,,,,,
,language,html.Page,1,,,form submission,37660.97899961853,11858.79999923706,11853.479,11869.921,49530.89999961853,49531.199999809265,2023-11-28T08:13:13.779Z,49534.613,v9qFAPBwML,full,klassikaal_3,652fe10cdc68ac1c61cf9cec,participant,"Koen ",,"Frans ",BA,,,,,,,,,,,,,,,,,,,,,
,age-gender,html.Page,2,,,form submission,33290.887,49531.5,49518.291,49534.613,82825.5,82825.89999961853,2023-11-28T08:13:47.076Z,82836.785,v9qFAPBwML,full,klassikaal_3,652fe10cdc68ac1c61cf9cec,participant,"Koen ",,,,19,m,,,,,,,,,,,,,,,,,,,
,prepare,html.Page,3_0,,,form submission,124848.01499923706,82826.29999923706,82820.265,82836.785,207684.79999923706,207685.0999994278,2023-11-28T08:15:51.935Z,207686.758,v9qFAPBwML,full,klassikaal_3,652fe10cdc68ac1c61cf9cec,participant,"Koen ",,,,,,,,,,,,,,,,,,,,,,,,
,try-out-image,html.Page,3_1,,,form submission,45959.14199961853,207685.19999980927,207670.298,207686.758,253645.89999961853,253646.29999923706,2023-11-28T08:16:37.890Z,253660.492,v9qFAPBwML,full,klassikaal_3,652fe10cdc68ac1c61cf9cec,participant,"Koen ",,,,,,,2 eenden,"2 canards ",,,,,,,,,,,,,,,,
,answer,html.Page,3_2,,,form submission,36690.80799923706,253646.39999961853,253644.055,253660.492,290351.29999923706,290351.5999994278,2023-11-28T08:17:14.596Z,290359.442,v9qFAPBwML,full,klassikaal_3,652fe10cdc68ac1c61cf9cec,participant,"Koen ",,,,,,,,,,,,,,,,,,,,,,,,
,try-out,flow.Sequence,3,,,completion,207514.51499923706,82826.19999980927,82820.265,82836.785,290351.29999923706,290354.5,2023-11-28T08:17:14.599Z,290359.442,v9qFAPBwML,full,klassikaal_3,652fe10cdc68ac1c61cf9cec,participant,"Koen ",,,,,,,,,,,,,,,,,,,,,,,,
,prepare,html.Page,4_0,,,form submission,1526.558000000019,290354.5999994278,290342.889,290359.442,291886,291886.29999923706,2023-11-28T08:17:16.131Z,291891.277,v9qFAPBwML,full,klassikaal_3,652fe10cdc68ac1c61cf9cec,participant,"Koen ",,,,,,,,,,,,,,,,,,,,,,,,
,beach1-image,html.Page,4_1,,,form submission,21210.12299961853,291886.5,291874.762,291891.277,313101.39999961853,313101.69999980927,2023-11-28T08:17:37.351Z,313104.779,v9qFAPBwML,full,klassikaal_3,652fe10cdc68ac1c61cf9cec,participant,"Koen ",,,,,,,,,"de vogel ",l'oiseau,,,,,,,,,,,,,,
,answer,html.Page,4_2,,,form submission,11638.72100000002,313101.79999923706,313088.462,313104.779,324743.5,324744.29999923706,2023-11-28T08:17:48.994Z,324764.986,v9qFAPBwML,full,klassikaal_3,652fe10cdc68ac1c61cf9cec,participant,"Koen ",,,,,,,,,,,,,,,,,,,,,,,,
,beach1,flow.Sequence,4,,,completion,34384.05800000002,290354.5999994278,290342.889,290359.442,324743.5,324744.5999994278,2023-11-28T08:17:48.994Z,324764.986,v9qFAPBwML,full,klassikaal_3,652fe10cdc68ac1c61cf9cec,participant,"Koen ",,,,,,,,,,,,,,,,,,,,,,,,
,prepare,html.Page,5_0,,,form submission,1138.11399942782,324744.79999923706,324727.556,324764.986,325903.0999994278,325903.29999923706,2023-11-28T08:17:50.153Z,325909.6,v9qFAPBwML,full,klassikaal_3,652fe10cdc68ac1c61cf9cec,participant,"Koen ",,,,,,,,,,,,,,,,,,,,,,,,
,street1-image,html.Page,5_1,,,form submission,55591.99999942782,325903.5,325893.073,325909.6,381501.5999994278,381501.79999923706,2023-11-28T08:18:45.752Z,381524.401,v9qFAPBwML,full,klassikaal_3,652fe10cdc68ac1c61cf9cec,participant,"Koen ",,,,,,,,,,,deur,porteµ,,,,,,,,,,,,
,answer,html.Page,5_2,,,form submission,4181.998999618518,381501.89999961853,381507.524,381524.401,385706.39999961853,385706.79999923706,2023-11-28T08:18:49.957Z,385720.274,v9qFAPBwML,full,klassikaal_3,652fe10cdc68ac1c61cf9cec,participant,"Koen ",,,,,,,,,,,,,,,,,,,,,,,,
,street1,flow.Sequence,5,,,completion,60941.413999618555,324744.79999923706,324727.556,324764.986,385706.39999961853,385706.89999961853,2023-11-28T08:18:49.957Z,385720.274,v9qFAPBwML,full,klassikaal_3,652fe10cdc68ac1c61cf9cec,participant,"Koen ",,,,,,,,,,,,,,,,,,,,,,,,
,prepare,html.Page,6_0,,,form submission,14146.025999237085,385707,385703.598,385720.274,399866.29999923706,399866.5999994278,2023-11-28T08:19:04.116Z,399873.709,v9qFAPBwML,full,klassikaal_3,652fe10cdc68ac1c61cf9cec,participant,"Koen ",,,,,,,,,,,,,,,,,,,,,,,,
,farm1-image,html.Page,6_1,,,form submission,28905.99099980929,399866.79999923706,399857.291,399873.709,428779.69999980927,428780,2023-11-28T08:19:33.030Z,428801.931,v9qFAPBwML,full,klassikaal_3,652fe10cdc68ac1c61cf9cec,participant,"Koen ",,,,,,,,,,,,,boom,arbre,,,,,,,,,,
,answer,html.Page,6_2,,,form submission,7048.768999809283,428780.19999980927,428763.606,428801.931,435850.69999980927,435851,2023-11-28T08:19:40.101Z,435856.706,v9qFAPBwML,full,klassikaal_3,652fe10cdc68ac1c61cf9cec,participant,"Koen ",,,,,,,,,,,,,,,,,,,,,,,,
,farm1,flow.Sequence,6,,,completion,50130.42599980929,385707,385703.598,385720.274,435850.69999980927,435851.0999994278,2023-11-28T08:19:40.101Z,435856.706,v9qFAPBwML,full,klassikaal_3,652fe10cdc68ac1c61cf9cec,participant,"Koen ",,,,,,,,,,,,,,,,,,,,,,,,
,prepare,html.Page,7_0,,,form submission,22712.293999999994,435851.29999923706,435840.029,435856.706,458569,458569.19999980927,2023-11-28T08:20:02.819Z,458602.087,v9qFAPBwML,full,klassikaal_3,652fe10cdc68ac1c61cf9cec,participant,"Koen ",,,,,,,,,,,,,,,,,,,,,,,,
,beach2-image,html.Page,7_1,,,form submission,26816.612999809266,458569.39999961853,458585.719,458602.087,485418.69999980927,485418.89999961853,2023-11-28T08:20:29.669Z,485427.015,v9qFAPBwML,full,klassikaal_3,652fe10cdc68ac1c61cf9cec,participant,"Koen ",,,,,,,,,,,,,,,hond,chien,,,,,,,,
,answer,html.Page,7_2,,,form submission,6825.484999999986,485419.0999994278,485410.615,485427.015,492252.5,492252.5999994278,2023-11-28T08:20:36.502Z,492253.983,v9qFAPBwML,full,klassikaal_3,652fe10cdc68ac1c61cf9cec,participant,"Koen ",,,,,,,,,,,,,,,,,,,,,,,,
,beach2,flow.Sequence,7,,,completion,56395.793999999994,435851.29999923706,435840.029,435856.706,492252.5,492252.89999961853,2023-11-28T08:20:36.503Z,492253.983,v9qFAPBwML,full,klassikaal_3,652fe10cdc68ac1c61cf9cec,participant,"Koen ",,,,,,,,,,,,,,,,,,,,,,,,
,prepare,html.Page,8_0,,,form submission,28520.316999237053,492253.0999994278,492237.486,492253.983,520774.29999923706,520774.5,2023-11-28T08:21:05.024Z,520777.352,v9qFAPBwML,full,klassikaal_3,652fe10cdc68ac1c61cf9cec,participant,"Koen ",,,,,,,,,,,,,,,,,,,,,,,,
,street2-image,html.Page,8_1,,,form submission,17724.84799980925,520774.69999980927,520760.916,520777.352,538502.1999998093,538502.5,2023-11-28T08:21:22.752Z,538510.681,v9qFAPBwML,full,klassikaal_3,652fe10cdc68ac1c61cf9cec,participant,"Koen ",,,,,,,,,,,,,,,,,flesje,bouteille,,,,,,
,answer,html.Page,8_2,,,form submission,5559.718999618548,538502.6999998093,538494.301,538510.681,544070.3999996185,544070.7999992371,2023-11-28T08:21:28.321Z,544072.229,v9qFAPBwML,full,klassikaal_3,652fe10cdc68ac1c61cf9cec,participant,"Koen ",,,,,,,,,,,,,,,,,,,,,,,,
,street2,flow.Sequence,8,,,completion,51816.41699961852,492253,492237.486,492253.983,544070.3999996185,544071.0999994278,2023-11-28T08:21:28.321Z,544072.229,v9qFAPBwML,full,klassikaal_3,652fe10cdc68ac1c61cf9cec,participant,"Koen ",,,,,,,,,,,,,,,,,,,,,,,,
,prepare,html.Page,9_0,,,form submission,36987.77099999995,544071.2999992371,544055.768,544072.229,581060,581060.1999998093,2023-11-28T08:22:05.310Z,581070.932,v9qFAPBwML,full,klassikaal_3,652fe10cdc68ac1c61cf9cec,participant,"Koen ",,,,,,,,,,,,,,,,,,,,,,,,
,farm2-image,html.Page,9_1,,,form submission,27597.9679996185,581060.3999996185,581054.403,581070.932,608668.8999996185,608669.2999992371,2023-11-28T08:22:32.919Z,608678.427,v9qFAPBwML,full,klassikaal_3,652fe10cdc68ac1c61cf9cec,participant,"Koen ",,,,,,,,,,,,,,,,,,,lakens,draps,,,,
,answer,html.Page,9_2,,,form submission,2732.27299980924,608669.3999996185,608662.023,608678.427,611410.6999998093,611410.8999996185,2023-11-28T08:22:35.661Z,611426.023,v9qFAPBwML,full,klassikaal_3,652fe10cdc68ac1c61cf9cec,participant,"Koen ",,,,,,,,,,,,,,,,,,,,,,,,
,farm2,flow.Sequence,9,,,completion,67338.47099980921,544071.1999998093,544055.768,544072.229,611410.6999998093,611411.1999998093,2023-11-28T08:22:35.661Z,611426.023,v9qFAPBwML,full,klassikaal_3,652fe10cdc68ac1c61cf9cec,participant,"Koen ",,,,,,,,,,,,,,,,,,,,,,,,
,prepare,html.Page,10_0,,,form submission,26417.876999618486,611411.2999992371,611409.428,611426.023,637843.8999996185,637844.2999992371,2023-11-28T08:23:02.094Z,637851.052,v9qFAPBwML,full,klassikaal_3,652fe10cdc68ac1c61cf9cec,participant,"Koen ",,,,,,,,,,,,,,,,,,,,,,,,
,park1-image,html.Page,10_1,,,form submission,41549.247999237035,637844.3999996185,637834.723,637851.052,679400.2999992371,679400.6999998093,2023-11-28T08:23:43.650Z,679412.328,v9qFAPBwML,full,klassikaal_3,652fe10cdc68ac1c61cf9cec,participant,"Koen ",,,,,,,,,,,,,,,,,,,,,,,,
,answer,html.Page,10_2,,,form submission,4847.1720000000205,679400.8999996185,679395.736,679412.328,684259.5,684259.7999992371,2023-11-28T08:23:48.510Z,684274.513,v9qFAPBwML,full,klassikaal_3,652fe10cdc68ac1c61cf9cec,participant,"Koen ",,,,,,,,,,,,,,,,,,,,,,,,
,park1,flow.Sequence,10,,,completion,72833.47699999996,611411.2999992371,611409.428,611426.023,684259.5,684260,2023-11-28T08:23:48.510Z,684274.513,v9qFAPBwML,full,klassikaal_3,652fe10cdc68ac1c61cf9cec,participant,"Koen ",,,,,,,,,,,,,,,,,,,,,,,,
,prepare,html.Page,11_0,,,form submission,26098.486999999965,684260.0999994278,684257.966,684274.513,710373,710373.1999998093,2023-11-28T08:24:14.623Z,710383.281,v9qFAPBwML,full,klassikaal_3,652fe10cdc68ac1c61cf9cec,participant,"Koen ",,,,,,,,,,,,,,,,,,,,,,,,
,park2-image,html.Page,11_1,,,form submission,24348.21900000004,710373.3999996185,710366.722,710383.281,734731.5,734731.7999992371,2023-11-28T08:24:38.982Z,734744.011,v9qFAPBwML,full,klassikaal_3,652fe10cdc68ac1c61cf9cec,participant,"Koen ",,,,,,,,,,,,,,,,,,,,,,,bloemenbak,pot de fleur
,answer,html.Page,11_2,,,form submission,6595.588999427739,734732,734727.456,734744.011,741339.5999994278,741339.7999992371,2023-11-28T08:24:45.590Z,741354.408,v9qFAPBwML,full,klassikaal_3,652fe10cdc68ac1c61cf9cec,participant,"Koen ",,,,,,,,,,,,,,,,,,,,,,,,
,park2,flow.Sequence,11,,,completion,57065.08699942776,684260.0999994278,684257.966,684274.513,741339.5999994278,741340.0999994278,2023-11-28T08:24:45.590Z,741354.408,v9qFAPBwML,full,klassikaal_3,652fe10cdc68ac1c61cf9cec,participant,"Koen ",,,,,,,,,,,,,,,,,,,,,,,,
,bedankt,html.Page,12,,,timeout,2997.072999999975,741340.1999998093,741337.917,741354.408,744335.179,744336.3999996185,2023-11-28T08:24:48.586Z,744351.481,v9qFAPBwML,full,klassikaal_3,652fe10cdc68ac1c61cf9cec,participant,"Koen ",,,,,,,,,,,,,,,,,,,,,,,,
,root,flow.Sequence,,,,completion,741390.197,2947.5,2845.092,2944.982,744335.179,744336.7999992371,2023-11-28T08:24:48.587Z,744351.481,v9qFAPBwML,full,klassikaal_3,652fe10cdc68ac1c61cf9cec,participant,"Koen ",,,,,,,,,,,,,,,,,,,,,,,,