meta,sender,sender_type,sender_id,Order,,ended_on,duration,time_run,time_render,time_show,time_end,time_commit,timestamp,time_switch,openLabId,type,task,project,status,code,confirmationCode,participant_L1,university_level,age,gender,gender_other,try-out_answer_L2,try-out_answer_L1,beach1_answer_L2,beach1_answer_L1,street1_answer_L2,street1_answer_L1,farm1_answer_L2,farm1_answer_L1,beach2_answer_L2,beach2_answer_L1,street2_answer_L2,street2_answer_L1,farm2_answer_L2,farm2_answer_L1,park1_answer_L2,park1_answer_L1,park2_answer_L2,park2_answer_L1
"{""labjs_version"":""20.2.4"",""labjs_build"":{""flavor"":""production"",""commit"":""f5b4a49f956347addd546a832a3327688c2c0fef""},""location"":""https://open-lab.online/test/klassikaal_3/6565a0f6fa275e2b7bdece2a"",""userAgent"":""Mozilla/5.0 (Macintosh; Intel Mac OS X 10_15_7) AppleWebKit/605.1.15 (KHTML, like Gecko) Version/17.1.1 Safari/605.1.15"",""platform"":""MacIntel"",""language"":""fr-FR"",""locale"":""fr-FR"",""timeZone"":""Europe/Brussels"",""timezoneOffset"":-60,""screen_width"":1024,""screen_height"":1366,""scroll_width"":1274,""scroll_height"":885,""window_innerWidth"":1274,""window_innerHeight"":869,""devicePixelRatio"":2}",ID,html.Page,0,2,,form submission,13532,1898.0000000000002,1903,1914,15446,15447.000000000002,2023-11-28T08:12:54.137Z,15454,2QEqDaYw5h,full,klassikaal_3,652fe10cdc68ac1c61cf9cec,participant,cb,568665,,,,,,,,,,,,,,,,,,,,,,,
,language,html.Page,1,,,form submission,41979,15447.000000000002,15449,15454,57433,57434.00000000001,2023-11-28T08:13:36.123Z,57446,2QEqDaYw5h,full,klassikaal_3,652fe10cdc68ac1c61cf9cec,participant,cb,,"Frans, nederlands",BA,,,,,,,,,,,,,,,,,,,,,
,age-gender,html.Page,2,,,form submission,20563,57434.00000000001,57438,57446,78009,78009,2023-11-28T08:13:56.698Z,78041,2QEqDaYw5h,full,klassikaal_3,652fe10cdc68ac1c61cf9cec,participant,cb,,,,19,v,,,,,,,,,,,,,,,,,,,
,prepare,html.Page,3_0,,,form submission,209381,78009,78024,78041,287422,287422,2023-11-28T08:17:26.108Z,287480,2QEqDaYw5h,full,klassikaal_3,652fe10cdc68ac1c61cf9cec,participant,cb,,,,,,,,,,,,,,,,,,,,,,,,
,try-out-image,html.Page,3_1,,,form submission,7498,287422,287427,287480,294978,294978,2023-11-28T08:17:33.664Z,294993,2QEqDaYw5h,full,klassikaal_3,652fe10cdc68ac1c61cf9cec,participant,cb,,,,,,,De eenden,,,,,,,,,,,,,,,,,
,answer,html.Page,3_2,,,form submission,2476,294978,294979,294993,297469,297469,2023-11-28T08:17:36.155Z,297478,2QEqDaYw5h,full,klassikaal_3,652fe10cdc68ac1c61cf9cec,participant,cb,,,,,,,,,,,,,,,,,,,,,,,,
,try-out,flow.Sequence,3,,,completion,219428,78009,78024,78041,297469,297471,2023-11-28T08:17:36.157Z,297478,2QEqDaYw5h,full,klassikaal_3,652fe10cdc68ac1c61cf9cec,participant,cb,,,,,,,,,,,,,,,,,,,,,,,,
,prepare,html.Page,4_0,,,form submission,1132,297472,297474,297478,298610,298611,2023-11-28T08:17:37.297Z,298670,2QEqDaYw5h,full,klassikaal_3,652fe10cdc68ac1c61cf9cec,participant,cb,,,,,,,,,,,,,,,,,,,,,,,,
,beach1-image,html.Page,4_1,,,form submission,21340,298611,298615,298670,320010,320010,2023-11-28T08:17:58.695Z,320050,2QEqDaYw5h,full,klassikaal_3,652fe10cdc68ac1c61cf9cec,participant,cb,,,,,,,,,De man is niet aan het vissen,"La pêche ",,,,,,,,,,,,,,
,answer,html.Page,4_2,,,form submission,2531,320010,320033,320050,322581,322582,2023-11-28T08:18:01.267Z,322602,2QEqDaYw5h,full,klassikaal_3,652fe10cdc68ac1c61cf9cec,participant,cb,,,,,,,,,,,,,,,,,,,,,,,,
,beach1,flow.Sequence,4,,,completion,25103,297472,297474,297478,322581,322582,2023-11-28T08:18:01.267Z,322602,2QEqDaYw5h,full,klassikaal_3,652fe10cdc68ac1c61cf9cec,participant,cb,,,,,,,,,,,,,,,,,,,,,,,,
,prepare,html.Page,5_0,,,form submission,1348,322582,322583,322602,323950,323951,2023-11-28T08:18:02.636Z,323985,2QEqDaYw5h,full,klassikaal_3,652fe10cdc68ac1c61cf9cec,participant,cb,,,,,,,,,,,,,,,,,,,,,,,,
,street1-image,html.Page,5_1,,,form submission,25184,323951,323955,323985,349169,349169,2023-11-28T08:18:27.854Z,349184,2QEqDaYw5h,full,klassikaal_3,652fe10cdc68ac1c61cf9cec,participant,cb,,,,,,,,,,,,,,,,,,,,,,,,
,answer,html.Page,5_2,,,form submission,20202,349169,349170,349184,369386,369386,2023-11-28T08:18:48.071Z,369395,2QEqDaYw5h,full,klassikaal_3,652fe10cdc68ac1c61cf9cec,participant,cb,,,,,,,,,,,,,,,,,,,,,,,,
,street1,flow.Sequence,5,,,completion,46784,322582,322583,322602,369386,369387,2023-11-28T08:18:48.071Z,369395,2QEqDaYw5h,full,klassikaal_3,652fe10cdc68ac1c61cf9cec,participant,cb,,,,,,,,,,,,,,,,,,,,,,,,
,prepare,html.Page,6_0,,,form submission,15425,369387,369390,369395,384820,384820,2023-11-28T08:19:03.505Z,384904,2QEqDaYw5h,full,klassikaal_3,652fe10cdc68ac1c61cf9cec,participant,cb,,,,,,,,,,,,,,,,,,,,,,,,
,farm1-image,html.Page,6_1,,,form submission,43645.00000000006,384820,384825,384904,428549.00000000006,428549.00000000006,2023-11-28T08:19:47.233Z,428597,2QEqDaYw5h,full,klassikaal_3,652fe10cdc68ac1c61cf9cec,participant,cb,,,,,,,,,,,,,,L’homme ne taille pas la haie,,,,,,,,,,
,answer,html.Page,6_2,,,form submission,3349,428549.00000000006,428580,428597,431946,431946,2023-11-28T08:19:50.630Z,431965,2QEqDaYw5h,full,klassikaal_3,652fe10cdc68ac1c61cf9cec,participant,cb,,,,,,,,,,,,,,,,,,,,,,,,
,farm1,flow.Sequence,6,,,completion,62551,369387,369390,369395,431946,431946,2023-11-28T08:19:50.630Z,431965,2QEqDaYw5h,full,klassikaal_3,652fe10cdc68ac1c61cf9cec,participant,cb,,,,,,,,,,,,,,,,,,,,,,,,
,prepare,html.Page,7_0,,,form submission,19327.00000000006,431946,431947,431965,451292.00000000006,451293,2023-11-28T08:20:09.977Z,451377,2QEqDaYw5h,full,klassikaal_3,652fe10cdc68ac1c61cf9cec,participant,cb,,,,,,,,,,,,,,,,,,,,,,,,
,beach2-image,html.Page,7_1,,,form submission,21375,451294,451298,451377,472752,472753,2023-11-28T08:20:31.436Z,472773,2QEqDaYw5h,full,klassikaal_3,652fe10cdc68ac1c61cf9cec,participant,cb,,,,,,,,,,,,,,,,,,,,,,,,
,answer,html.Page,7_2,,,form submission,2602,472753,472754,472773,475375,475376.00000000006,2023-11-28T08:20:34.059Z,475382,2QEqDaYw5h,full,klassikaal_3,652fe10cdc68ac1c61cf9cec,participant,cb,,,,,,,,,,,,,,,,,,,,,,,,
,beach2,flow.Sequence,7,,,completion,43410,431946,431947,431965,475375,475376.00000000006,2023-11-28T08:20:34.059Z,475382,2QEqDaYw5h,full,klassikaal_3,652fe10cdc68ac1c61cf9cec,participant,cb,,,,,,,,,,,,,,,,,,,,,,,,
,prepare,html.Page,8_0,,,form submission,25924,475377,475379,475382,501306,501306,2023-11-28T08:20:59.989Z,501406,2QEqDaYw5h,full,klassikaal_3,652fe10cdc68ac1c61cf9cec,participant,cb,,,,,,,,,,,,,,,,,,,,,,,,
,street2-image,html.Page,8_1,,,form submission,20839,501307,501311,501406,522245,522245,2023-11-28T08:21:20.928Z,522285,2QEqDaYw5h,full,klassikaal_3,652fe10cdc68ac1c61cf9cec,participant,cb,,,,,,,,,,,,,,,,,Grote rode strik van de eerste beer,,,,,,,
,answer,html.Page,8_2,,,form submission,9236,522245,522268,522285,531521,531522,2023-11-28T08:21:30.204Z,531541,2QEqDaYw5h,full,klassikaal_3,652fe10cdc68ac1c61cf9cec,participant,cb,,,,,,,,,,,,,,,,,,,,,,,,
,street2,flow.Sequence,8,,,completion,56139,475376.00000000006,475379,475382,531521,531522,2023-11-28T08:21:30.205Z,531541,2QEqDaYw5h,full,klassikaal_3,652fe10cdc68ac1c61cf9cec,participant,cb,,,,,,,,,,,,,,,,,,,,,,,,
,prepare,html.Page,9_0,,,form submission,43765,531523,531525,531541,575306,575306,2023-11-28T08:22:13.988Z,575383,2QEqDaYw5h,full,klassikaal_3,652fe10cdc68ac1c61cf9cec,participant,cb,,,,,,,,,,,,,,,,,,,,,,,,
,farm2-image,html.Page,9_1,,,form submission,21688,575307,575311,575383,597071,597071,2023-11-28T08:22:35.753Z,597112,2QEqDaYw5h,full,klassikaal_3,652fe10cdc68ac1c61cf9cec,participant,cb,,,,,,,,,,,,,,,,,,,,,,,,
,answer,html.Page,9_2,,,form submission,25313.000000000116,597071,597096,597112,622425.0000000001,622426,2023-11-28T08:23:01.107Z,622444,2QEqDaYw5h,full,klassikaal_3,652fe10cdc68ac1c61cf9cec,participant,cb,,,,,,,,,,,,,,,,,,,,,,,,
,farm2,flow.Sequence,9,,,completion,90884.00000000012,531523,531525,531541,622425.0000000001,622426,2023-11-28T08:23:01.107Z,622444,2QEqDaYw5h,full,klassikaal_3,652fe10cdc68ac1c61cf9cec,participant,cb,,,,,,,,,,,,,,,,,,,,,,,,
,prepare,html.Page,10_0,,,form submission,725,622426,622429,622444,623169,623170,2023-11-28T08:23:01.851Z,623244,2QEqDaYw5h,full,klassikaal_3,652fe10cdc68ac1c61cf9cec,participant,cb,,,,,,,,,,,,,,,,,,,,,,,,
,park1-image,html.Page,10_1,,,form submission,22281,623170,623175,623244,645525,645526.0000000001,2023-11-28T08:23:24.207Z,645557,2QEqDaYw5h,full,klassikaal_3,652fe10cdc68ac1c61cf9cec,participant,cb,,,,,,,,,,,,,,,,,,,,,2 bloembakken,,,
,answer,html.Page,10_2,,,form submission,7979,645526.0000000001,645541,645557,653536,653537,2023-11-28T08:23:32.218Z,653545,2QEqDaYw5h,full,klassikaal_3,652fe10cdc68ac1c61cf9cec,participant,cb,,,,,,,,,,,,,,,,,,,,,,,,
,park1,flow.Sequence,10,,,completion,31092,622426,622429,622444,653536,653538,2023-11-28T08:23:32.219Z,653545,2QEqDaYw5h,full,klassikaal_3,652fe10cdc68ac1c61cf9cec,participant,cb,,,,,,,,,,,,,,,,,,,,,,,,
,prepare,html.Page,11_0,,,form submission,42399,653538,653540,653545,695944,695944,2023-11-28T08:24:14.625Z,696020,2QEqDaYw5h,full,klassikaal_3,652fe10cdc68ac1c61cf9cec,participant,cb,,,,,,,,,,,,,,,,,,,,,,,,
,park2-image,html.Page,11_1,,,form submission,7795,695944,695946,696020,703815,703815,2023-11-28T08:24:22.495Z,703842,2QEqDaYw5h,full,klassikaal_3,652fe10cdc68ac1c61cf9cec,participant,cb,,,,,,,,,,,,,,,,,,,,,,,2bloembakken,
,answer,html.Page,11_2,,,form submission,2242.0000000001164,703815,703819,703842,706084.0000000001,706085,2023-11-28T08:24:24.765Z,706093,2QEqDaYw5h,full,klassikaal_3,652fe10cdc68ac1c61cf9cec,participant,cb,,,,,,,,,,,,,,,,,,,,,,,,
,park2,flow.Sequence,11,,,completion,52539.00000000012,653538,653540,653545,706084.0000000001,706085,2023-11-28T08:24:24.765Z,706093,2QEqDaYw5h,full,klassikaal_3,652fe10cdc68ac1c61cf9cec,participant,cb,,,,,,,,,,,,,,,,,,,,,,,,
,bedankt,html.Page,12,,,timeout,3002,706085,706086,706093,709078,709080,2023-11-28T08:24:27.760Z,709095,2QEqDaYw5h,full,klassikaal_3,652fe10cdc68ac1c61cf9cec,participant,cb,,,,,,,,,,,,,,,,,,,,,,,,
,root,flow.Sequence,,,,completion,707164,1898.0000000000002,1903,1914,709078,709080,2023-11-28T08:24:27.761Z,709095,2QEqDaYw5h,full,klassikaal_3,652fe10cdc68ac1c61cf9cec,participant,cb,,,,,,,,,,,,,,,,,,,,,,,,