meta,sender,sender_type,sender_id,Order,,ended_on,duration,time_run,time_render,time_show,time_end,time_commit,timestamp,time_switch,openLabId,type,task,project,status,code,confirmationCode,participant_L1,university_level,age,gender,gender_other,try-out_answer_L2,try-out_answer_L1,beach1_answer_L2,beach1_answer_L1,street1_answer_L2,street1_answer_L1,farm1_answer_L2,farm1_answer_L1,beach2_answer_L2,beach2_answer_L1,street2_answer_L2,street2_answer_L1,farm2_answer_L2,farm2_answer_L1,park1_answer_L2,park1_answer_L1,park2_answer_L2,park2_answer_L1
"{""labjs_version"":""20.2.4"",""labjs_build"":{""flavor"":""production"",""commit"":""f5b4a49f956347addd546a832a3327688c2c0fef""},""location"":""https://open-lab.online/test/klassikaal_3/656861e6fa275e2b7bdee308"",""userAgent"":""Mozilla/5.0 (Macintosh; Intel Mac OS X 10_15_7) AppleWebKit/605.1.15 (KHTML, like Gecko) Version/14.1.2 Safari/605.1.15"",""platform"":""MacIntel"",""language"":""fr-fr"",""locale"":""fr-FR"",""timeZone"":""Europe/Brussels"",""timezoneOffset"":-60,""screen_width"":1440,""screen_height"":900,""scroll_width"":1440,""scroll_height"":772,""window_innerWidth"":1440,""window_innerHeight"":820,""devicePixelRatio"":2}",ID,html.Page,0,3,,form submission,4235,1700,1723,1749,5984,5985,2023-11-30T10:20:28.151Z,6007,fKeCvQNBOU,full,klassikaal_3,652fe10cdc68ac1c61cf9cec,participant,Eva,816452,,,,,,,,,,,,,,,,,,,,,,,
,language,html.Page,1,,,form submission,42312,5985,5989,6007,48319,48319,2023-11-30T10:21:10.486Z,48341,fKeCvQNBOU,full,klassikaal_3,652fe10cdc68ac1c61cf9cec,participant,Eva,,"Frans ",BA,,,,,,,,,,,,,,,,,,,,,
,age-gender,html.Page,2,,,form submission,9169,48320,48324,48341,57510,57511,2023-11-30T10:21:19.677Z,57541,fKeCvQNBOU,full,klassikaal_3,652fe10cdc68ac1c61cf9cec,participant,Eva,,,,20,v,,,,,,,,,,,,,,,,,,,
,prepare,html.Page,3_0,,,form submission,95110,57511,57523,57541,152651,152652.00000000003,2023-11-30T10:22:54.818Z,152694,fKeCvQNBOU,full,klassikaal_3,652fe10cdc68ac1c61cf9cec,participant,Eva,,,,,,,,,,,,,,,,,,,,,,,,
,try-out-image,html.Page,3_1,,,form submission,28177,152652.00000000003,152658,152694,180871,180871,2023-11-30T10:23:23.037Z,180892,fKeCvQNBOU,full,klassikaal_3,652fe10cdc68ac1c61cf9cec,participant,Eva,,,,,,,de eenden,les canards,,,,,,,,,,,,,,,,
,answer,html.Page,3_2,,,form submission,38844.00000000003,180871,180876,180892,219736.00000000003,219736.00000000003,2023-11-30T10:24:01.902Z,219758,fKeCvQNBOU,full,klassikaal_3,652fe10cdc68ac1c61cf9cec,participant,Eva,,,,,,,,,,,,,,,,,,,,,,,,
,try-out,flow.Sequence,3,,,completion,162195.00000000003,57511,57523,57541,219736.00000000003,219737,2023-11-30T10:24:01.903Z,219758,fKeCvQNBOU,full,klassikaal_3,652fe10cdc68ac1c61cf9cec,participant,Eva,,,,,,,,,,,,,,,,,,,,,,,,
,prepare,html.Page,4_0,,,form submission,1714,219737,219743,219758,221472,221472,2023-11-30T10:24:03.638Z,221515,fKeCvQNBOU,full,klassikaal_3,652fe10cdc68ac1c61cf9cec,participant,Eva,,,,,,,,,,,,,,,,,,,,,,,,
,beach1-image,html.Page,4_1,,,form submission,29651,221472,221477,221515,251166,251166,2023-11-30T10:24:33.332Z,251192,fKeCvQNBOU,full,klassikaal_3,652fe10cdc68ac1c61cf9cec,participant,Eva,,,,,,,,,,la cane à pêche,,,,,,,,,,,,,,
,answer,html.Page,4_2,,,form submission,3723,251166,251176,251192,254915,254916,2023-11-30T10:24:37.082Z,254943,fKeCvQNBOU,full,klassikaal_3,652fe10cdc68ac1c61cf9cec,participant,Eva,,,,,,,,,,,,,,,,,,,,,,,,
,beach1,flow.Sequence,4,,,completion,35157,219737,219743,219758,254915,254916,2023-11-30T10:24:37.082Z,254943,fKeCvQNBOU,full,klassikaal_3,652fe10cdc68ac1c61cf9cec,participant,Eva,,,,,,,,,,,,,,,,,,,,,,,,
,prepare,html.Page,5_0,,,form submission,16066,254916,254926,254943,271009,271009,2023-11-30T10:24:53.175Z,271106,fKeCvQNBOU,full,klassikaal_3,652fe10cdc68ac1c61cf9cec,participant,Eva,,,,,,,,,,,,,,,,,,,,,,,,
,street1-image,html.Page,5_1,,,form submission,97611,271009,271014,271106,368717,368717,2023-11-30T10:26:30.883Z,368744,fKeCvQNBOU,full,klassikaal_3,652fe10cdc68ac1c61cf9cec,participant,Eva,,,,,,,,,,,de strepen zijn wit,"les lignes sont blanches ",,,,,,,,,,,,
,answer,html.Page,5_2,,,form submission,1738,368717,368728,368744,370482,370483,2023-11-30T10:26:32.649Z,370511,fKeCvQNBOU,full,klassikaal_3,652fe10cdc68ac1c61cf9cec,participant,Eva,,,,,,,,,,,,,,,,,,,,,,,,
,street1,flow.Sequence,5,,,completion,115539,254916,254926,254943,370482,370483,2023-11-30T10:26:32.649Z,370511,fKeCvQNBOU,full,klassikaal_3,652fe10cdc68ac1c61cf9cec,participant,Eva,,,,,,,,,,,,,,,,,,,,,,,,
,prepare,html.Page,6_0,,,form submission,15081,370483,370494,370511,385592,385593,2023-11-30T10:26:47.758Z,385643,fKeCvQNBOU,full,klassikaal_3,652fe10cdc68ac1c61cf9cec,participant,Eva,,,,,,,,,,,,,,,,,,,,,,,,
,farm1-image,html.Page,6_1,,,form submission,21397,385593,385596,385643,407040,407040,2023-11-30T10:27:09.206Z,407061,fKeCvQNBOU,full,klassikaal_3,652fe10cdc68ac1c61cf9cec,participant,Eva,,,,,,,,,,,,,De man is niet aan het omzagen,,,,,,,,,,,
,answer,html.Page,6_2,,,form submission,11998,407040,407045,407061,419059,419059,2023-11-30T10:27:21.225Z,419078,fKeCvQNBOU,full,klassikaal_3,652fe10cdc68ac1c61cf9cec,participant,Eva,,,,,,,,,,,,,,,,,,,,,,,,
,farm1,flow.Sequence,6,,,completion,48548,370483,370494,370511,419059,419060,2023-11-30T10:27:21.225Z,419078,fKeCvQNBOU,full,klassikaal_3,652fe10cdc68ac1c61cf9cec,participant,Eva,,,,,,,,,,,,,,,,,,,,,,,,
,prepare,html.Page,7_0,,,form submission,22401,419060,419062,419078,441479,441480,2023-11-30T10:27:43.645Z,441555,fKeCvQNBOU,full,klassikaal_3,652fe10cdc68ac1c61cf9cec,participant,Eva,,,,,,,,,,,,,,,,,,,,,,,,
,beach2-image,html.Page,7_1,,,form submission,31619.00000000006,441480,441495,441555,473174.00000000006,473174.00000000006,2023-11-30T10:28:15.340Z,473196,fKeCvQNBOU,full,klassikaal_3,652fe10cdc68ac1c61cf9cec,participant,Eva,,,,,,,,,,,,,,,Er mist twee mannen,,,,,,,,,
,answer,html.Page,7_2,,,form submission,3396,473174.00000000006,473179,473196,476592,476593,2023-11-30T10:28:18.758Z,476611,fKeCvQNBOU,full,klassikaal_3,652fe10cdc68ac1c61cf9cec,participant,Eva,,,,,,,,,,,,,,,,,,,,,,,,
,beach2,flow.Sequence,7,,,completion,57514,419060,419062,419078,476592,476593,2023-11-30T10:28:18.759Z,476611,fKeCvQNBOU,full,klassikaal_3,652fe10cdc68ac1c61cf9cec,participant,Eva,,,,,,,,,,,,,,,,,,,,,,,,
,prepare,html.Page,8_0,,,form submission,25273,476593,476596,476611,501884,501885,2023-11-30T10:28:44.050Z,501980,fKeCvQNBOU,full,klassikaal_3,652fe10cdc68ac1c61cf9cec,participant,Eva,,,,,,,,,,,,,,,,,,,,,,,,
,street2-image,html.Page,8_1,,,form submission,28133,501885,501896,501980,530113,530113,2023-11-30T10:29:12.279Z,530129,fKeCvQNBOU,full,klassikaal_3,652fe10cdc68ac1c61cf9cec,participant,Eva,,,,,,,,,,,,,,,,,De beer heeft geen strik,,,,,,,
,answer,html.Page,8_2,,,form submission,4400,530113,530114,530129,534529,534530,2023-11-30T10:29:16.695Z,534546,fKeCvQNBOU,full,klassikaal_3,652fe10cdc68ac1c61cf9cec,participant,Eva,,,,,,,,,,,,,,,,,,,,,,,,
,street2,flow.Sequence,8,,,completion,57918,476593,476596,476611,534529,534530,2023-11-30T10:29:16.695Z,534546,fKeCvQNBOU,full,klassikaal_3,652fe10cdc68ac1c61cf9cec,participant,Eva,,,,,,,,,,,,,,,,,,,,,,,,
,prepare,html.Page,9_0,,,form submission,25231,534530,534532,534546,559777,559778,2023-11-30T10:29:41.943Z,559834,fKeCvQNBOU,full,klassikaal_3,652fe10cdc68ac1c61cf9cec,participant,Eva,,,,,,,,,,,,,,,,,,,,,,,,
,farm2-image,html.Page,9_1,,,form submission,38500.00000000012,559778,559781,559834,598334.0000000001,598335,2023-11-30T10:30:20.500Z,598364,fKeCvQNBOU,full,klassikaal_3,652fe10cdc68ac1c61cf9cec,participant,Eva,,,,,,,,,,,,,,,,,,,,,,,,
,answer,html.Page,9_2,,,form submission,2277,598335,598346,598364,600641,600642,2023-11-30T10:30:22.808Z,600664,fKeCvQNBOU,full,klassikaal_3,652fe10cdc68ac1c61cf9cec,participant,Eva,,,,,,,,,,,,,,,,,,,,,,,,
,farm2,flow.Sequence,9,,,completion,66095,534530,534532,534546,600641,600643,2023-11-30T10:30:22.808Z,600664,fKeCvQNBOU,full,klassikaal_3,652fe10cdc68ac1c61cf9cec,participant,Eva,,,,,,,,,,,,,,,,,,,,,,,,
,prepare,html.Page,10_0,,,form submission,16591,600643,600647,600664,617255,617255,2023-11-30T10:30:39.421Z,617325,fKeCvQNBOU,full,klassikaal_3,652fe10cdc68ac1c61cf9cec,participant,Eva,,,,,,,,,,,,,,,,,,,,,,,,
,park1-image,html.Page,10_1,,,form submission,22263,617256,617264,617325,639588,639589,2023-11-30T10:31:01.754Z,639614,fKeCvQNBOU,full,klassikaal_3,652fe10cdc68ac1c61cf9cec,participant,Eva,,,,,,,,,,,,,,,,,,,,,Het kind op het fiets,,,
,answer,html.Page,10_2,,,form submission,12164,639589,639598,639614,651778,651778,2023-11-30T10:31:13.944Z,651797,fKeCvQNBOU,full,klassikaal_3,652fe10cdc68ac1c61cf9cec,participant,Eva,,,,,,,,,,,,,,,,,,,,,,,,
,park1,flow.Sequence,10,,,completion,51114,600643,600647,600664,651778,651779,2023-11-30T10:31:13.944Z,651797,fKeCvQNBOU,full,klassikaal_3,652fe10cdc68ac1c61cf9cec,participant,Eva,,,,,,,,,,,,,,,,,,,,,,,,
,prepare,html.Page,11_0,,,form submission,24482,651779,651781,651797,676279,676280,2023-11-30T10:31:38.445Z,676362,fKeCvQNBOU,full,klassikaal_3,652fe10cdc68ac1c61cf9cec,participant,Eva,,,,,,,,,,,,,,,,,,,,,,,,
,park2-image,html.Page,11_1,,,form submission,22066,676280,676285,676362,698428,698428,2023-11-30T10:32:00.593Z,698448,fKeCvQNBOU,full,klassikaal_3,652fe10cdc68ac1c61cf9cec,participant,Eva,,,,,,,,,,,,,,,,,,,,,,,de bloembak met witte bloemen,
,answer,html.Page,11_2,,,form submission,13498,698428,698432,698448,711946,711946,2023-11-30T10:32:14.112Z,711965,fKeCvQNBOU,full,klassikaal_3,652fe10cdc68ac1c61cf9cec,participant,Eva,,,,,,,,,,,,,,,,,,,,,,,,
,park2,flow.Sequence,11,,,completion,60149,651779,651781,651797,711946,711947,2023-11-30T10:32:14.112Z,711965,fKeCvQNBOU,full,klassikaal_3,652fe10cdc68ac1c61cf9cec,participant,Eva,,,,,,,,,,,,,,,,,,,,,,,,
,bedankt,html.Page,12,,,timeout,3000,711947,711948,711965,714949,714951,2023-11-30T10:32:17.116Z,714965,fKeCvQNBOU,full,klassikaal_3,652fe10cdc68ac1c61cf9cec,participant,Eva,,,,,,,,,,,,,,,,,,,,,,,,
,root,flow.Sequence,,,,completion,713200,1700,1723,1749,714949,714952,2023-11-30T10:32:17.117Z,714965,fKeCvQNBOU,full,klassikaal_3,652fe10cdc68ac1c61cf9cec,participant,Eva,,,,,,,,,,,,,,,,,,,,,,,,