meta,sender,sender_type,sender_id,Order,,ended_on,duration,time_run,time_render,time_show,time_end,time_commit,timestamp,time_switch,openLabId,type,task,project,status,code,confirmationCode,participant_L1,university_level,age,gender,gender_other,try-out_answer_L2,try-out_answer_L1,beach1_answer_L2,beach1_answer_L1,street1_answer_L2,street1_answer_L1,farm1_answer_L2,farm1_answer_L1,beach2_answer_L2,beach2_answer_L1,street2_answer_L2,street2_answer_L1,farm2_answer_L2,farm2_answer_L1,park1_answer_L2,park1_answer_L1,park2_answer_L2,park2_answer_L1
"{""labjs_version"":""20.2.4"",""labjs_build"":{""flavor"":""production"",""commit"":""f5b4a49f956347addd546a832a3327688c2c0fef""},""location"":""https://open-lab.online/test/klassikaal_3/656861ebfa275e2b7bdee310"",""userAgent"":""Mozilla/5.0 (Windows NT 10.0; Win64; x64; rv:120.0) Gecko/20100101 Firefox/120.0"",""platform"":""Win32"",""language"":""fr"",""locale"":""fr-BE"",""timeZone"":""Europe/Brussels"",""timezoneOffset"":-60,""screen_width"":1536,""screen_height"":864,""scroll_width"":1536,""scroll_height"":664,""window_innerWidth"":1536,""window_innerHeight"":712,""devicePixelRatio"":1.25}",ID,html.Page,0,3,,form submission,4520.66,2316,2316.1,2322.34,6843,6843,2023-11-30T10:20:33.569Z,6837.6,IcVCQ0ePl1,full,klassikaal_3,652fe10cdc68ac1c61cf9cec,participant,Florine,568097,,,,,,,,,,,,,,,,,,,,,,,
,language,html.Page,1,,,form submission,39293.4,6844,6836.6,6837.6,46131,46133,2023-11-30T10:21:12.858Z,46140.86,IcVCQ0ePl1,full,klassikaal_3,652fe10cdc68ac1c61cf9cec,participant,Florine,,Frans,BA,,,,,,,,,,,,,,,,,,,,,
,age-gender,html.Page,2,,,form submission,9308.14,46133,46126.78,46140.86,55449,55450,2023-11-30T10:21:22.176Z,55454.5,IcVCQ0ePl1,full,klassikaal_3,652fe10cdc68ac1c61cf9cec,participant,Florine,,,,20,v,,,,,,,,,,,,,,,,,,,
,prepare,html.Page,3_0,,,form submission,92853.5,55450,55447.02,55454.5,148308,148308,2023-11-30T10:22:55.034Z,148306.2,IcVCQ0ePl1,full,klassikaal_3,652fe10cdc68ac1c61cf9cec,participant,Florine,,,,,,,,,,,,,,,,,,,,,,,,
,try-out-image,html.Page,3_1,,,form submission,38579.79999999999,148308,148306.04,148306.2,186886,186886,2023-11-30T10:23:33.612Z,186893.06,IcVCQ0ePl1,full,klassikaal_3,652fe10cdc68ac1c61cf9cec,participant,Florine,,,,,,,Eenden,,,,,,,,,,,,,,,,,
,answer,html.Page,3_2,,,form submission,24194.940000000002,186887,186884.86,186893.06,211088,211088,2023-11-30T10:23:57.814Z,211101.56,IcVCQ0ePl1,full,klassikaal_3,652fe10cdc68ac1c61cf9cec,participant,Florine,,,,,,,,,,,,,,,,,,,,,,,,
,try-out,flow.Sequence,3,,,completion,155633.5,55450,55447.02,55454.5,211088,211089,2023-11-30T10:23:57.814Z,211101.56,IcVCQ0ePl1,full,klassikaal_3,652fe10cdc68ac1c61cf9cec,participant,Florine,,,,,,,,,,,,,,,,,,,,,,,,
,prepare,html.Page,4_0,,,form submission,1666.4400000000023,211089,211086.1,211101.56,212768,212768,2023-11-30T10:23:59.494Z,212767.68,IcVCQ0ePl1,full,klassikaal_3,652fe10cdc68ac1c61cf9cec,participant,Florine,,,,,,,,,,,,,,,,,,,,,,,,
,beach1-image,html.Page,4_1,,,form submission,39271.32000000001,212768,212766.28,212767.68,252039,252039,2023-11-30T10:24:38.764Z,252037.62,IcVCQ0ePl1,full,klassikaal_3,652fe10cdc68ac1c61cf9cec,participant,Florine,,,,,,,,,voetbal,,,,,,,,,,,,,,,
,answer,html.Page,4_2,,,form submission,3339.3800000000047,252039,252036.36,252037.62,255377,255377,2023-11-30T10:24:42.103Z,255386.64,IcVCQ0ePl1,full,klassikaal_3,652fe10cdc68ac1c61cf9cec,participant,Florine,,,,,,,,,,,,,,,,,,,,,,,,
,beach1,flow.Sequence,4,,,completion,44275.44,211089,211086.1,211101.56,255377,255378,2023-11-30T10:24:42.103Z,255386.64,IcVCQ0ePl1,full,klassikaal_3,652fe10cdc68ac1c61cf9cec,participant,Florine,,,,,,,,,,,,,,,,,,,,,,,,
,prepare,html.Page,5_0,,,form submission,3651.359999999986,255378,255375.82,255386.64,259038,259039,2023-11-30T10:24:45.764Z,259052.02,IcVCQ0ePl1,full,klassikaal_3,652fe10cdc68ac1c61cf9cec,participant,Florine,,,,,,,,,,,,,,,,,,,,,,,,
,street1-image,html.Page,5_1,,,form submission,122215.98000000001,259039,259036.62,259052.02,381268,381268,2023-11-30T10:26:47.994Z,381277.16,IcVCQ0ePl1,full,klassikaal_3,652fe10cdc68ac1c61cf9cec,participant,Florine,,,,,,,,,,,witte strepen,lignes blanches,,,,,,,,,,,,
,answer,html.Page,5_2,,,form submission,1770.8400000000256,381269,381266.12,381277.16,383048,383048,2023-11-30T10:26:49.773Z,383060.06,IcVCQ0ePl1,full,klassikaal_3,652fe10cdc68ac1c61cf9cec,participant,Florine,,,,,,,,,,,,,,,,,,,,,,,,
,street1,flow.Sequence,5,,,completion,127661.35999999999,255378,255375.82,255386.64,383048,383048,2023-11-30T10:26:49.773Z,383060.06,IcVCQ0ePl1,full,klassikaal_3,652fe10cdc68ac1c61cf9cec,participant,Florine,,,,,,,,,,,,,,,,,,,,,,,,
,prepare,html.Page,6_0,,,form submission,1266.9400000000023,383049,383046.02,383060.06,384327,384328,2023-11-30T10:26:51.053Z,384326.1,IcVCQ0ePl1,full,klassikaal_3,652fe10cdc68ac1c61cf9cec,participant,Florine,,,,,,,,,,,,,,,,,,,,,,,,
,farm1-image,html.Page,6_1,,,form submission,33260.90000000002,384328,384325.9,384326.1,417587,417588,2023-11-30T10:27:24.313Z,417598.22,IcVCQ0ePl1,full,klassikaal_3,652fe10cdc68ac1c61cf9cec,participant,Florine,,,,,,,,,,,,,de man zaagt niet,,,,,,,,,,,
,answer,html.Page,6_2,,,form submission,2529.780000000028,417588,417585.84,417598.22,420128,420128,2023-11-30T10:27:26.854Z,420130.72,IcVCQ0ePl1,full,klassikaal_3,652fe10cdc68ac1c61cf9cec,participant,Florine,,,,,,,,,,,,,,,,,,,,,,,,
,farm1,flow.Sequence,6,,,completion,37067.94,383049,383046.02,383060.06,420128,420128,2023-11-30T10:27:26.855Z,420130.72,IcVCQ0ePl1,full,klassikaal_3,652fe10cdc68ac1c61cf9cec,participant,Florine,,,,,,,,,,,,,,,,,,,,,,,,
,prepare,html.Page,7_0,,,form submission,15406.280000000028,420129,420126.68,420130.72,435537,435538,2023-11-30T10:27:42.264Z,435542.12,IcVCQ0ePl1,full,klassikaal_3,652fe10cdc68ac1c61cf9cec,participant,Florine,,,,,,,,,,,,,,,,,,,,,,,,
,beach2-image,html.Page,7_1,,,form submission,34825.880000000005,435538,435536.2,435542.12,470368,470368,2023-11-30T10:28:17.094Z,470380.32,IcVCQ0ePl1,full,klassikaal_3,652fe10cdc68ac1c61cf9cec,participant,Florine,,,,,,,,,,,,,,,Een andere man,Un autre homme,,,,,,,,
,answer,html.Page,7_2,,,form submission,11106.679999999993,470368,470366.18,470380.32,481487,481487,2023-11-30T10:28:28.214Z,481493.14,IcVCQ0ePl1,full,klassikaal_3,652fe10cdc68ac1c61cf9cec,participant,Florine,,,,,,,,,,,,,,,,,,,,,,,,
,beach2,flow.Sequence,7,,,completion,61356.28000000003,420129,420126.68,420130.72,481487,481488,2023-11-30T10:28:28.214Z,481493.14,IcVCQ0ePl1,full,klassikaal_3,652fe10cdc68ac1c61cf9cec,participant,Florine,,,,,,,,,,,,,,,,,,,,,,,,
,prepare,html.Page,8_0,,,form submission,15449.859999999986,481488,481486.04,481493.14,496943,496943,2023-11-30T10:28:43.669Z,496954.62,IcVCQ0ePl1,full,klassikaal_3,652fe10cdc68ac1c61cf9cec,participant,Florine,,,,,,,,,,,,,,,,,,,,,,,,
,street2-image,html.Page,8_1,,,form submission,37182.380000000005,496943,496941.16,496954.62,534137,534137,2023-11-30T10:29:20.864Z,534142,IcVCQ0ePl1,full,klassikaal_3,652fe10cdc68ac1c61cf9cec,participant,Florine,,,,,,,,,,,,,,,,,,,,,,,,
,answer,html.Page,8_2,,,form submission,2276,534137,534135.64,534142,536418,536418,2023-11-30T10:29:23.144Z,536424.54,IcVCQ0ePl1,full,klassikaal_3,652fe10cdc68ac1c61cf9cec,participant,Florine,,,,,,,,,,,,,,,,,,,,,,,,
,street2,flow.Sequence,8,,,completion,54924.859999999986,481488,481486.04,481493.14,536418,536418,2023-11-30T10:29:23.144Z,536424.54,IcVCQ0ePl1,full,klassikaal_3,652fe10cdc68ac1c61cf9cec,participant,Florine,,,,,,,,,,,,,,,,,,,,,,,,
,prepare,html.Page,9_0,,,form submission,18542.459999999963,536418,536415.98,536424.54,554967,554968,2023-11-30T10:29:41.694Z,554968.34,IcVCQ0ePl1,full,klassikaal_3,652fe10cdc68ac1c61cf9cec,participant,Florine,,,,,,,,,,,,,,,,,,,,,,,,
,farm2-image,html.Page,9_1,,,form submission,32049.660000000033,554968,554965.88,554968.34,587018,587018,2023-11-30T10:30:13.743Z,587024.1,IcVCQ0ePl1,full,klassikaal_3,652fe10cdc68ac1c61cf9cec,participant,Florine,,,,,,,,,,,,,,,,,,,De man is niet in paniek,,,,,
,answer,html.Page,9_2,,,form submission,10129.900000000023,587018,587015.4,587024.1,597154,597154,2023-11-30T10:30:23.879Z,597154,IcVCQ0ePl1,full,klassikaal_3,652fe10cdc68ac1c61cf9cec,participant,Florine,,,,,,,,,,,,,,,,,,,,,,,,
,farm2,flow.Sequence,9,,,completion,60729.45999999996,536418,536415.98,536424.54,597154,597154,2023-11-30T10:30:23.880Z,597154,IcVCQ0ePl1,full,klassikaal_3,652fe10cdc68ac1c61cf9cec,participant,Florine,,,,,,,,,,,,,,,,,,,,,,,,
,prepare,html.Page,10_0,,,form submission,15454,597155,597152.06,597154,612608,612608,2023-11-30T10:30:39.333Z,612615.34,IcVCQ0ePl1,full,klassikaal_3,652fe10cdc68ac1c61cf9cec,participant,Florine,,,,,,,,,,,,,,,,,,,,,,,,
,park1-image,html.Page,10_1,,,form submission,23571.660000000033,612609,612606.24,612615.34,636187,636188,2023-11-30T10:31:02.913Z,636190.7,IcVCQ0ePl1,full,klassikaal_3,652fe10cdc68ac1c61cf9cec,participant,Florine,,,,,,,,,,,,,,,,,,,,,Een kind die fietst,Un enfant qui fait du vélo,,
,answer,html.Page,10_2,,,form submission,7806.300000000047,636188,636185.78,636190.7,643997,643997,2023-11-30T10:31:10.724Z,644004.7,IcVCQ0ePl1,full,klassikaal_3,652fe10cdc68ac1c61cf9cec,participant,Florine,,,,,,,,,,,,,,,,,,,,,,,,
,park1,flow.Sequence,10,,,completion,46843,597155,597152.06,597154,643997,643998,2023-11-30T10:31:10.724Z,644004.7,IcVCQ0ePl1,full,klassikaal_3,652fe10cdc68ac1c61cf9cec,participant,Florine,,,,,,,,,,,,,,,,,,,,,,,,
,prepare,html.Page,11_0,,,form submission,26882.300000000047,643999,643995.82,644004.7,670887,670887,2023-11-30T10:31:37.613Z,670895.58,IcVCQ0ePl1,full,klassikaal_3,652fe10cdc68ac1c61cf9cec,participant,Florine,,,,,,,,,,,,,,,,,,,,,,,,
,park2-image,html.Page,11_1,,,form submission,18152.420000000042,670887,670885.68,670895.58,689048,689048,2023-11-30T10:31:55.773Z,689056.1,IcVCQ0ePl1,full,klassikaal_3,652fe10cdc68ac1c61cf9cec,participant,Florine,,,,,,,,,,,,,,,,,,,,,,,Geen witte bloemen,Pas de fleurs blanches
,answer,html.Page,11_2,,,form submission,15641.900000000023,689048,689046,689056.1,704698,704698,2023-11-30T10:32:11.424Z,704700.78,IcVCQ0ePl1,full,klassikaal_3,652fe10cdc68ac1c61cf9cec,participant,Florine,,,,,,,,,,,,,,,,,,,,,,,,
,park2,flow.Sequence,11,,,completion,60693.30000000005,643998,643995.82,644004.7,704698,704698,2023-11-30T10:32:11.424Z,704700.78,IcVCQ0ePl1,full,klassikaal_3,652fe10cdc68ac1c61cf9cec,participant,Florine,,,,,,,,,,,,,,,,,,,,,,,,
,bedankt,html.Page,12,,,timeout,2999.140000000014,704699,704696.04,704700.78,707683.26,707684,2023-11-30T10:32:14.410Z,707699.92,IcVCQ0ePl1,full,klassikaal_3,652fe10cdc68ac1c61cf9cec,participant,Florine,,,,,,,,,,,,,,,,,,,,,,,,
,root,flow.Sequence,,,,completion,705360.92,2316,2316.1,2322.34,707683.26,707685,2023-11-30T10:32:14.410Z,707699.92,IcVCQ0ePl1,full,klassikaal_3,652fe10cdc68ac1c61cf9cec,participant,Florine,,,,,,,,,,,,,,,,,,,,,,,,