meta,sender,sender_type,sender_id,Order,,ended_on,duration,time_run,time_render,time_show,time_end,time_commit,timestamp,time_switch,openLabId,type,task,project,status,code,confirmationCode,participant_L1,university_level,age,gender,gender_other,try-out_answer_L2,try-out_answer_L1,beach1_answer_L2,beach1_answer_L1,street1_answer_L2,street1_answer_L1,farm1_answer_L2,farm1_answer_L1,beach2_answer_L2,beach2_answer_L1,street2_answer_L2,street2_answer_L1,farm2_answer_L2,farm2_answer_L1,park1_answer_L2,park1_answer_L1,park2_answer_L2,park2_answer_L1
"{""labjs_version"":""20.2.4"",""labjs_build"":{""flavor"":""production"",""commit"":""f5b4a49f956347addd546a832a3327688c2c0fef""},""location"":""https://open-lab.online/test/klassikaal_3/6568a78afa275e2b7bdee464"",""userAgent"":""Mozilla/5.0 (Windows NT 10.0; Win64; x64) AppleWebKit/537.36 (KHTML, like Gecko) Chrome/119.0.0.0 Safari/537.36 Edg/119.0.0.0"",""platform"":""Win32"",""language"":""fr"",""locale"":""fr-BE"",""timeZone"":""Europe/Brussels"",""timezoneOffset"":-60,""screen_width"":1280,""screen_height"":720,""scroll_width"":1232,""scroll_height"":598,""window_innerWidth"":1232,""window_innerHeight"":598,""devicePixelRatio"":1.5}",ID,html.Page,0,4,,form submission,6134.399000023842,2616.899999976158,2572.219,2622.201,8756.600000023842,8756.899999976158,2023-11-30T15:17:40.137Z,8772.372,RDhqemqv0i,full,klassikaal_3,652fe10cdc68ac1c61cf9cec,participant,PK,552901,,,,,,,,,,,,,,,,,,,,,,,
,language,html.Page,1,,,form submission,48692.22800002384,8757.100000023842,8738.772,8772.372,57464.60000002384,57465,2023-11-30T15:18:28.845Z,57471.472,RDhqemqv0i,full,klassikaal_3,652fe10cdc68ac1c61cf9cec,participant,PK,,Frans (moedertaal) en Nederlands van de onthaalklas tot het einde van het 3de midellbaar,BA,,,,,,,,,,,,,,,,,,,,,
,age-gender,html.Page,2,,,form submission,7907.327999952315,57465.10000002384,57454.648,57471.472,65378.799999952316,65379.10000002384,2023-11-30T15:18:36.759Z,65387.989,RDhqemqv0i,full,klassikaal_3,652fe10cdc68ac1c61cf9cec,participant,PK,,,,19,v,,,,,,,,,,,,,,,,,,,
,prepare,html.Page,3_0,,,form submission,193852.21099992847,65379.299999952316,65371.15,65387.989,259240.19999992847,259240.89999997616,2023-11-30T15:21:50.621Z,259267.85,RDhqemqv0i,full,klassikaal_3,652fe10cdc68ac1c61cf9cec,participant,PK,,,,,,,,,,,,,,,,,,,,,,,,
,try-out-image,html.Page,3_1,,,form submission,26874.149999999994,259241,259251.142,259267.85,286142,286142.1999999285,2023-11-30T15:22:17.522Z,286150.739,RDhqemqv0i,full,klassikaal_3,652fe10cdc68ac1c61cf9cec,participant,PK,,,,,,,eenden,,,,,,,,,,,,,,,,,
,answer,html.Page,3_2,,,form submission,69652.86100002384,286142.2999999523,286134.045,286150.739,355803.60000002384,355804,2023-11-30T15:23:27.184Z,355816.138,RDhqemqv0i,full,klassikaal_3,652fe10cdc68ac1c61cf9cec,participant,PK,,,,,,,,,,,,,,,,,,,,,,,,
,try-out,flow.Sequence,3,,,completion,290415.61100002384,65379.299999952316,65371.15,65387.989,355803.60000002384,355805.60000002384,2023-11-30T15:23:27.185Z,355816.138,RDhqemqv0i,full,klassikaal_3,652fe10cdc68ac1c61cf9cec,participant,PK,,,,,,,,,,,,,,,,,,,,,,,,
,prepare,html.Page,4_0,,,form submission,2200.862000000023,355805.6999999285,355799.519,355816.138,358017,358017.2999999523,2023-11-30T15:23:29.397Z,358033.03,RDhqemqv0i,full,klassikaal_3,652fe10cdc68ac1c61cf9cec,participant,PK,,,,,,,,,,,,,,,,,,,,,,,,
,beach1-image,html.Page,4_1,,,form submission,39006.66999992845,358017.39999997616,358016.391,358033.03,397039.6999999285,397040,2023-11-30T15:24:08.420Z,397049.716,RDhqemqv0i,full,klassikaal_3,652fe10cdc68ac1c61cf9cec,participant,PK,,,,,,,,,,,,,,,,,,,,,,,,
,answer,html.Page,4_2,,,form submission,38737.38400002383,397040.10000002384,397032.247,397049.716,435787.10000002384,435787.39999997616,2023-11-30T15:24:47.167Z,435798.124,RDhqemqv0i,full,klassikaal_3,652fe10cdc68ac1c61cf9cec,participant,PK,,,,,,,,,,,,,,,,,,,,,,,,
,beach1,flow.Sequence,4,,,completion,79970.96200002386,355805.6999999285,355799.519,355816.138,435787.10000002384,435787.60000002384,2023-11-30T15:24:47.167Z,435798.124,RDhqemqv0i,full,klassikaal_3,652fe10cdc68ac1c61cf9cec,participant,PK,,,,,,,,,,,,,,,,,,,,,,,,
,prepare,html.Page,5_0,,,form submission,782.3759999999893,435787.6999999285,435781.489,435798.124,436580.5,436580.7999999523,2023-11-30T15:24:47.961Z,436581.534,RDhqemqv0i,full,klassikaal_3,652fe10cdc68ac1c61cf9cec,participant,PK,,,,,,,,,,,,,,,,,,,,,,,,
,street1-image,html.Page,5_1,,,form submission,20367.26599995233,436581,436565.05,436581.534,456948.7999999523,456949.2999999523,2023-11-30T15:25:08.329Z,456947.813,RDhqemqv0i,full,klassikaal_3,652fe10cdc68ac1c61cf9cec,participant,PK,,,,,,,,,,,dierenwinkel,,,,,,,,,,,,,
,answer,html.Page,5_2,,,form submission,9568.38699992845,456949.5,456931.13,456947.813,466516.1999999285,466516.60000002384,2023-11-30T15:25:17.896Z,466530.987,RDhqemqv0i,full,klassikaal_3,652fe10cdc68ac1c61cf9cec,participant,PK,,,,,,,,,,,,,,,,,,,,,,,,
,street1,flow.Sequence,5,,,completion,30718.075999928464,435787.6999999285,435781.489,435798.124,466516.1999999285,466516.7999999523,2023-11-30T15:25:17.896Z,466530.987,RDhqemqv0i,full,klassikaal_3,652fe10cdc68ac1c61cf9cec,participant,PK,,,,,,,,,,,,,,,,,,,,,,,,
,prepare,html.Page,6_0,,,form submission,21364.912999976135,466516.89999997616,466514.296,466530.987,487895.89999997616,487896.10000002384,2023-11-30T15:25:39.276Z,487897.46,RDhqemqv0i,full,klassikaal_3,652fe10cdc68ac1c61cf9cec,participant,PK,,,,,,,,,,,,,,,,,,,,,,,,
,farm1-image,html.Page,6_1,,,form submission,17686.239999928453,487896.1999999285,487880.84,487897.46,505583.6999999285,505584.10000002384,2023-11-30T15:25:56.964Z,505596.961,RDhqemqv0i,full,klassikaal_3,652fe10cdc68ac1c61cf9cec,participant,PK,,,,,,,,,,,,,de man heeft geen kettingzaag en zaagt geen boom,,,,,,,,,,,
,answer,html.Page,6_2,,,form submission,44645.53899999999,505584.1999999285,505580.28,505596.961,550242.5,550242.8999999762,2023-11-30T15:26:41.623Z,550246.353,RDhqemqv0i,full,klassikaal_3,652fe10cdc68ac1c61cf9cec,participant,PK,,,,,,,,,,,,,,,,,,,,,,,,
,farm1,flow.Sequence,6,,,completion,83711.51299999998,466516.7999999523,466514.296,466530.987,550242.5,550243.2999999523,2023-11-30T15:26:41.623Z,550246.353,RDhqemqv0i,full,klassikaal_3,652fe10cdc68ac1c61cf9cec,participant,PK,,,,,,,,,,,,,,,,,,,,,,,,
,prepare,html.Page,7_0,,,form submission,1088.9469999523135,550243.3999999762,550229.537,550246.353,551335.2999999523,551335.5,2023-11-30T15:26:42.715Z,551346.206,RDhqemqv0i,full,klassikaal_3,652fe10cdc68ac1c61cf9cec,participant,PK,,,,,,,,,,,,,,,,,,,,,,,,
,beach2-image,html.Page,7_1,,,form submission,31662.793999999994,551335.6000000238,551329.446,551346.206,583009,583009.2999999523,2023-11-30T15:27:14.389Z,583012.345,RDhqemqv0i,full,klassikaal_3,652fe10cdc68ac1c61cf9cec,participant,PK,,,,,,,,,,,,,,,er staan geen twee mannen te duwen tegen de auto,,,,,,,,,
,answer,html.Page,7_2,,,form submission,4553.554999976186,583010,582995.71,583012.345,587565.8999999762,587566.1999999285,2023-11-30T15:27:18.946Z,587595.799,RDhqemqv0i,full,klassikaal_3,652fe10cdc68ac1c61cf9cec,participant,PK,,,,,,,,,,,,,,,,,,,,,,,,
,beach2,flow.Sequence,7,,,completion,37319.546999976155,550243.3999999762,550229.537,550246.353,587565.8999999762,587566.5,2023-11-30T15:27:18.946Z,587595.799,RDhqemqv0i,full,klassikaal_3,652fe10cdc68ac1c61cf9cec,participant,PK,,,,,,,,,,,,,,,,,,,,,,,,
,prepare,html.Page,8_0,,,form submission,20010.801000023843,587566.6999999285,587578.877,587595.799,607606.6000000238,607607,2023-11-30T15:27:38.987Z,607611.9,RDhqemqv0i,full,klassikaal_3,652fe10cdc68ac1c61cf9cec,participant,PK,,,,,,,,,,,,,,,,,,,,,,,,
,street2-image,html.Page,8_1,,,form submission,16593.099999999977,607607.1000000238,607595.195,607611.9,624205,624205.5,2023-11-30T15:27:55.585Z,624211.516,RDhqemqv0i,full,klassikaal_3,652fe10cdc68ac1c61cf9cec,participant,PK,,,,,,,,,,,,,,,,,de knuffelbeer heeft geen rode strik aan,,,,,,,
,answer,html.Page,8_2,,,form submission,3223.383999976213,624205.6000000238,624195.591,624211.516,627434.8999999762,627435.2999999523,2023-11-30T15:27:58.815Z,627445.057,RDhqemqv0i,full,klassikaal_3,652fe10cdc68ac1c61cf9cec,participant,PK,,,,,,,,,,,,,,,,,,,,,,,,
,street2,flow.Sequence,8,,,completion,39839.10099997616,587566.6999999285,587578.877,587595.799,627434.8999999762,627435.5,2023-11-30T15:27:58.815Z,627445.057,RDhqemqv0i,full,klassikaal_3,652fe10cdc68ac1c61cf9cec,participant,PK,,,,,,,,,,,,,,,,,,,,,,,,
,prepare,html.Page,9_0,,,form submission,40025.34299997613,627435.6000000238,627430.923,627445.057,667470.3999999762,667470.7999999523,2023-11-30T15:28:38.850Z,667477.608,RDhqemqv0i,full,klassikaal_3,652fe10cdc68ac1c61cf9cec,participant,PK,,,,,,,,,,,,,,,,,,,,,,,,
,farm2-image,html.Page,9_1,,,form submission,23106.992000023834,667471,667461.689,667477.608,690584.6000000238,690584.8999999762,2023-11-30T15:29:01.965Z,690593.736,RDhqemqv0i,full,klassikaal_3,652fe10cdc68ac1c61cf9cec,participant,PK,,,,,,,,,,,,,,,,,,,niemand speelt,,,,,
,answer,html.Page,9_2,,,form submission,4808.2639999999665,690585,690577.756,690593.736,695402,695402.2999999523,2023-11-30T15:29:06.782Z,695410.331,RDhqemqv0i,full,klassikaal_3,652fe10cdc68ac1c61cf9cec,participant,PK,,,,,,,,,,,,,,,,,,,,,,,,
,farm2,flow.Sequence,9,,,completion,67956.94299999997,627435.6000000238,627430.923,627445.057,695402,695402.5,2023-11-30T15:29:06.782Z,695410.331,RDhqemqv0i,full,klassikaal_3,652fe10cdc68ac1c61cf9cec,participant,PK,,,,,,,,,,,,,,,,,,,,,,,,
,prepare,html.Page,10_0,,,form submission,26803.96899995231,695402.6999999285,695395.359,695410.331,722214.2999999523,722214.5,2023-11-30T15:29:33.594Z,722226.631,RDhqemqv0i,full,klassikaal_3,652fe10cdc68ac1c61cf9cec,participant,PK,,,,,,,,,,,,,,,,,,,,,,,,
,park1-image,html.Page,10_1,,,form submission,19294.068999928422,722214.6000000238,722209.914,722226.631,741520.6999999285,741521,2023-11-30T15:29:52.901Z,741526.275,RDhqemqv0i,full,klassikaal_3,652fe10cdc68ac1c61cf9cec,participant,PK,,,,,,,,,,,,,,,,,,,,,"er is geen kindje die fietst achter de moeder ",,,
,answer,html.Page,10_2,,,form submission,12172.124999976135,741521.1000000238,741509.925,741526.275,753698.3999999762,753698.6999999285,2023-11-30T15:30:05.078Z,753709.407,RDhqemqv0i,full,klassikaal_3,652fe10cdc68ac1c61cf9cec,participant,PK,,,,,,,,,,,,,,,,,,,,,,,,
,park1,flow.Sequence,10,,,completion,58288.06899997615,695402.6999999285,695395.359,695410.331,753698.3999999762,753698.7999999523,2023-11-30T15:30:05.078Z,753709.407,RDhqemqv0i,full,klassikaal_3,652fe10cdc68ac1c61cf9cec,participant,PK,,,,,,,,,,,,,,,,,,,,,,,,
,prepare,html.Page,11_0,,,form submission,28991.193000023835,753698.8999999762,753692.54,753709.407,782700.6000000238,782700.8999999762,2023-11-30T15:30:34.081Z,782709.127,RDhqemqv0i,full,klassikaal_3,652fe10cdc68ac1c61cf9cec,participant,PK,,,,,,,,,,,,,,,,,,,,,,,,
,park2-image,html.Page,11_1,,,form submission,22092.072999928496,782701,782693.597,782709.127,804801.1999999285,804801.5,2023-11-30T15:30:56.181Z,804808.471,RDhqemqv0i,full,klassikaal_3,652fe10cdc68ac1c61cf9cec,participant,PK,,,,,,,,,,,,,,,,,,,,,,,er mist een bloembak met de witte bloemen,
,answer,html.Page,11_2,,,form submission,2101.228999928455,804801.6000000238,804792.127,804808.471,806909.6999999285,806910,2023-11-30T15:30:58.290Z,806925.323,RDhqemqv0i,full,klassikaal_3,652fe10cdc68ac1c61cf9cec,participant,PK,,,,,,,,,,,,,,,,,,,,,,,,
,park2,flow.Sequence,11,,,completion,53200.29299992847,753698.8999999762,753692.54,753709.407,806909.6999999285,806910.1999999285,2023-11-30T15:30:58.290Z,806925.323,RDhqemqv0i,full,klassikaal_3,652fe10cdc68ac1c61cf9cec,participant,PK,,,,,,,,,,,,,,,,,,,,,,,,
,bedankt,html.Page,12,,,timeout,2999.771999999997,806910.2999999523,806909.28,806925.323,809908.458,809916.2999999523,2023-11-30T15:31:01.296Z,809925.095,RDhqemqv0i,full,klassikaal_3,652fe10cdc68ac1c61cf9cec,participant,PK,,,,,,,,,,,,,,,,,,,,,,,,
,root,flow.Sequence,,,,completion,807286.257,2616.6999999284744,2572.219,2622.201,809908.458,809916.6999999285,2023-11-30T15:31:01.296Z,809925.095,RDhqemqv0i,full,klassikaal_3,652fe10cdc68ac1c61cf9cec,participant,PK,,,,,,,,,,,,,,,,,,,,,,,,