meta,sender,sender_type,sender_id,Order,,ended_on,duration,time_run,time_render,time_show,time_end,time_commit,timestamp,time_switch,openLabId,type,task,project,status,code,confirmationCode,participant_L1,university_level,age,gender,gender_other,try-out_answer_L2,try-out_answer_L1,beach1_answer_L2,beach1_answer_L1,street1_answer_L2,street1_answer_L1,farm1_answer_L2,farm1_answer_L1,beach2_answer_L2,beach2_answer_L1,street2_answer_L2,street2_answer_L1,farm2_answer_L2,farm2_answer_L1,park1_answer_L2,park1_answer_L1,park2_answer_L2,park2_answer_L1
"{""labjs_version"":""20.2.4"",""labjs_build"":{""flavor"":""production"",""commit"":""f5b4a49f956347addd546a832a3327688c2c0fef""},""location"":""https://open-lab.online/test/klassikaal_3/6568a81cfa275e2b7bdee49a"",""userAgent"":""Mozilla/5.0 (Windows NT 10.0; Win64; x64) AppleWebKit/537.36 (KHTML, like Gecko) Chrome/119.0.0.0 Safari/537.36 Edg/119.0.0.0"",""platform"":""Win32"",""language"":""en-GB"",""locale"":""en-BE"",""timeZone"":""Europe/Brussels"",""timezoneOffset"":-60,""screen_width"":1536,""screen_height"":864,""scroll_width"":1488,""scroll_height"":694,""window_innerWidth"":1488,""window_innerHeight"":742,""devicePixelRatio"":1.25}",ID,html.Page,0,4,,form submission,6744.850000011921,1467.800000011921,1425.642,1458.95,8203.800000011921,8204.399999976158,2023-11-30T15:20:05.927Z,8211.549,iscL5PpdhD,full,klassikaal_3,652fe10cdc68ac1c61cf9cec,participant,Zaligheid,985464,,,,,,,,,,,,,,,,,,,,,,,
,language,html.Page,1,,,form submission,18071.951,8204.800000011921,8194.798,8211.549,26283.5,26283.899999976158,2023-11-30T15:20:24.007Z,26284.934,iscL5PpdhD,full,klassikaal_3,652fe10cdc68ac1c61cf9cec,participant,Zaligheid,,Frans en Engels,BA,,,,,,,,,,,,,,,,,,,,,
,age-gender,html.Page,2,,,form submission,9228.965999976157,26284.100000023842,26268.631,26284.934,35513.89999997616,35514.30000001192,2023-11-30T15:20:33.245Z,35521.931,iscL5PpdhD,full,klassikaal_3,652fe10cdc68ac1c61cf9cec,participant,Zaligheid,,,,19,m,,,,,,,,,,,,,,,,,,,
,prepare,html.Page,3_0,,,form submission,122802.36900001192,35514.5,35505.53,35521.931,158324.30000001192,158324.60000002384,2023-11-30T15:22:36.055Z,158335.636,iscL5PpdhD,full,klassikaal_3,652fe10cdc68ac1c61cf9cec,participant,Zaligheid,,,,,,,,,,,,,,,,,,,,,,,,
,try-out-image,html.Page,3_1,,,form submission,37357.864,158324.69999998808,158319.121,158335.636,195693.5,195693.80000001192,2023-11-30T15:23:13.424Z,195699.848,iscL5PpdhD,full,klassikaal_3,652fe10cdc68ac1c61cf9cec,participant,Zaligheid,,,,,,,"de eende ",le canard,,,,,,,,,,,,,,,,
,answer,html.Page,3_2,,,form submission,33176.45200001192,195693.89999997616,195683.437,195699.848,228876.30000001192,228876.5,2023-11-30T15:23:46.607Z,228879.305,iscL5PpdhD,full,klassikaal_3,652fe10cdc68ac1c61cf9cec,participant,Zaligheid,,,,,,,,,,,,,,,,,,,,,,,,
,try-out,flow.Sequence,3,,,completion,193354.36900001194,35514.5,35505.53,35521.931,228876.30000001192,228879.19999998808,2023-11-30T15:23:46.610Z,228879.305,iscL5PpdhD,full,klassikaal_3,652fe10cdc68ac1c61cf9cec,participant,Zaligheid,,,,,,,,,,,,,,,,,,,,,,,,
,prepare,html.Page,4_0,,,form submission,8363.894999988086,228879.39999997616,228862.639,228879.305,237243.19999998808,237243.5,2023-11-30T15:23:54.974Z,237249.165,iscL5PpdhD,full,klassikaal_3,652fe10cdc68ac1c61cf9cec,participant,Zaligheid,,,,,,,,,,,,,,,,,,,,,,,,
,beach1-image,html.Page,4_1,,,form submission,14594.935000023834,237243.60000002384,237232.472,237249.165,251844.10000002384,251844.30000001192,2023-11-30T15:24:09.575Z,251854.683,iscL5PpdhD,full,klassikaal_3,652fe10cdc68ac1c61cf9cec,participant,Zaligheid,,,,,,,,,man is aan het vissen,canne à peche,,,,,,,,,,,,,,
,answer,html.Page,4_2,,,form submission,39151.21699997617,251844.5,251838.265,251854.683,291005.89999997616,291006.3000000119,2023-11-30T15:24:48.737Z,291019.865,iscL5PpdhD,full,klassikaal_3,652fe10cdc68ac1c61cf9cec,participant,Zaligheid,,,,,,,,,,,,,,,,,,,,,,,,
,beach1,flow.Sequence,4,,,completion,62126.594999976165,228879.30000001192,228862.639,228879.305,291005.89999997616,291006.5,2023-11-30T15:24:48.737Z,291019.865,iscL5PpdhD,full,klassikaal_3,652fe10cdc68ac1c61cf9cec,participant,Zaligheid,,,,,,,,,,,,,,,,,,,,,,,,
,prepare,html.Page,5_0,,,form submission,10394.735000023851,291006.6999999881,291003.29,291019.865,301414.60000002384,301414.89999997616,2023-11-30T15:24:59.145Z,301424.385,iscL5PpdhD,full,klassikaal_3,652fe10cdc68ac1c61cf9cec,participant,Zaligheid,,,,,,,,,,,,,,,,,,,,,,,,
,street1-image,html.Page,5_1,,,form submission,16469.215000023833,301415,301407.63,301424.385,317893.60000002384,317893.8000000119,2023-11-30T15:25:15.624Z,317896.673,iscL5PpdhD,full,klassikaal_3,652fe10cdc68ac1c61cf9cec,participant,Zaligheid,,,,,,,,,,,twee rode streepen,,,,,,,,,,,,,
,answer,html.Page,5_2,,,form submission,4897.32699999999,317894,317880.372,317896.673,322794,322794.3000000119,2023-11-30T15:25:20.525Z,322798.596,iscL5PpdhD,full,klassikaal_3,652fe10cdc68ac1c61cf9cec,participant,Zaligheid,,,,,,,,,,,,,,,,,,,,,,,,
,street1,flow.Sequence,5,,,completion,31774.13500000001,291006.60000002384,291003.29,291019.865,322794,322794.60000002384,2023-11-30T15:25:20.525Z,322798.596,iscL5PpdhD,full,klassikaal_3,652fe10cdc68ac1c61cf9cec,participant,Zaligheid,,,,,,,,,,,,,,,,,,,,,,,,
,prepare,html.Page,6_0,,,form submission,36840.00400002382,322795.39999997616,322781.947,322798.596,359638.60000002384,359638.8000000119,2023-11-30T15:25:57.369Z,359646.135,iscL5PpdhD,full,klassikaal_3,652fe10cdc68ac1c61cf9cec,participant,Zaligheid,,,,,,,,,,,,,,,,,,,,,,,,
,farm1-image,html.Page,6_1,,,form submission,455.96500002383254,359638.89999997616,359629.569,359646.135,360102.10000002384,360102.39999997616,2023-11-30T15:25:57.833Z,360113.076,iscL5PpdhD,full,klassikaal_3,652fe10cdc68ac1c61cf9cec,participant,Zaligheid,,,,,,,,,,,,,,,,,,,,,,,,
,answer,html.Page,6_2,,,form submission,10097.123999988078,360102.60000002384,360096.589,360113.076,370210.1999999881,370210.39999997616,2023-11-30T15:26:07.941Z,370216.913,iscL5PpdhD,full,klassikaal_3,652fe10cdc68ac1c61cf9cec,participant,Zaligheid,,,,,,,,,,,,,,,,,,,,,,,,
,farm1,flow.Sequence,6,,,completion,47411.60399998806,322795.39999997616,322781.947,322798.596,370210.1999999881,370210.60000002384,2023-11-30T15:26:07.941Z,370216.913,iscL5PpdhD,full,klassikaal_3,652fe10cdc68ac1c61cf9cec,participant,Zaligheid,,,,,,,,,,,,,,,,,,,,,,,,
,prepare,html.Page,7_0,,,form submission,32395.28699998808,370210.6999999881,370200.419,370216.913,402612.1999999881,402612.60000002384,2023-11-30T15:26:40.343Z,402636.288,iscL5PpdhD,full,klassikaal_3,652fe10cdc68ac1c61cf9cec,participant,Zaligheid,,,,,,,,,,,,,,,,,,,,,,,,
,beach2-image,html.Page,7_1,,,form submission,31438.611999976158,402612.6999999881,402596.044,402636.288,434074.89999997616,434075.1999999881,2023-11-30T15:27:11.806Z,434091.275,iscL5PpdhD,full,klassikaal_3,652fe10cdc68ac1c61cf9cec,participant,Zaligheid,,,,,,,,,,,,,,,twee mannen die de auto moeten duwen zijn niet daar,les deux gars qui poussent la voiture,,,,,,,,
,answer,html.Page,7_2,,,form submission,2280.5250000118976,434075.39999997616,434057.91,434091.275,436371.8000000119,436372.10000002384,2023-11-30T15:27:14.103Z,436375.414,iscL5PpdhD,full,klassikaal_3,652fe10cdc68ac1c61cf9cec,participant,Zaligheid,,,,,,,,,,,,,,,,,,,,,,,,
,beach2,flow.Sequence,7,,,completion,66154.88700001192,370210.60000002384,370200.419,370216.913,436371.8000000119,436372.3000000119,2023-11-30T15:27:14.103Z,436375.414,iscL5PpdhD,full,klassikaal_3,652fe10cdc68ac1c61cf9cec,participant,Zaligheid,,,,,,,,,,,,,,,,,,,,,,,,
,prepare,html.Page,8_0,,,form submission,25934.58600000001,436373.3000000119,436359.57,436375.414,462310,462310.1999999881,2023-11-30T15:27:40.041Z,462318.845,iscL5PpdhD,full,klassikaal_3,652fe10cdc68ac1c61cf9cec,participant,Zaligheid,,,,,,,,,,,,,,,,,,,,,,,,
,street2-image,html.Page,8_1,,,form submission,13030.955000011949,462310.39999997616,462302.336,462318.845,475349.8000000119,475350.10000002384,2023-11-30T15:27:53.081Z,475357.062,iscL5PpdhD,full,klassikaal_3,652fe10cdc68ac1c61cf9cec,participant,Zaligheid,,,,,,,,,,,,,,,,,"rode vestje ",manteau rouge,,,,,,
,answer,html.Page,8_2,,,form submission,19455.837999976182,475350.3000000119,475340.708,475357.062,494812.89999997616,494813.10000002384,2023-11-30T15:28:12.544Z,494814.491,iscL5PpdhD,full,klassikaal_3,652fe10cdc68ac1c61cf9cec,participant,Zaligheid,,,,,,,,,,,,,,,,,,,,,,,,
,street2,flow.Sequence,8,,,completion,58437.48599997617,436373.3000000119,436359.57,436375.414,494812.89999997616,494813.3000000119,2023-11-30T15:28:12.544Z,494814.491,iscL5PpdhD,full,klassikaal_3,652fe10cdc68ac1c61cf9cec,participant,Zaligheid,,,,,,,,,,,,,,,,,,,,,,,,
,prepare,html.Page,9_0,,,form submission,27089.80900001194,494813.39999997616,494799.893,494814.491,521904.3000000119,521904.60000002384,2023-11-30T15:28:39.635Z,521908.256,iscL5PpdhD,full,klassikaal_3,652fe10cdc68ac1c61cf9cec,participant,Zaligheid,,,,,,,,,,,,,,,,,,,,,,,,
,farm2-image,html.Page,9_1,,,form submission,10213.244000000006,521904.60000002384,521896.544,521908.256,532121.5,532122,2023-11-30T15:28:49.852Z,532128.889,iscL5PpdhD,full,klassikaal_3,652fe10cdc68ac1c61cf9cec,participant,Zaligheid,,,,,,,,,,,,,,,,,,,,,,,,
,answer,html.Page,9_2,,,form submission,44200.911000011954,532122.1000000238,532116.517,532128.889,576329.8000000119,576330,2023-11-30T15:29:34.061Z,576345.917,iscL5PpdhD,full,klassikaal_3,652fe10cdc68ac1c61cf9cec,participant,Zaligheid,,,,,,,,,,,,,,,,,,,,,,,,
,farm2,flow.Sequence,9,,,completion,81515.30900001194,494813.39999997616,494799.893,494814.491,576329.8000000119,576330.1999999881,2023-11-30T15:29:34.061Z,576345.917,iscL5PpdhD,full,klassikaal_3,652fe10cdc68ac1c61cf9cec,participant,Zaligheid,,,,,,,,,,,,,,,,,,,,,,,,
,prepare,html.Page,10_0,,,form submission,670.183000023826,576330.3000000119,576329.31,576345.917,577016.1000000238,577016.3999999762,2023-11-30T15:29:34.747Z,577029.479,iscL5PpdhD,full,klassikaal_3,652fe10cdc68ac1c61cf9cec,participant,Zaligheid,,,,,,,,,,,,,,,,,,,,,,,,
,park1-image,html.Page,10_1,,,form submission,7982.821000011871,577016.5,577012.759,577029.479,585012.3000000119,585012.3999999762,2023-11-30T15:29:42.743Z,585015.648,iscL5PpdhD,full,klassikaal_3,652fe10cdc68ac1c61cf9cec,participant,Zaligheid,,,,,,,,,,,,,,,,,,,,,fiets,vélo,,
,answer,html.Page,10_2,,,form submission,10081.152000011876,585012.5,584999.321,585015.648,595096.8000000119,595097,2023-11-30T15:29:52.828Z,595103.064,iscL5PpdhD,full,klassikaal_3,652fe10cdc68ac1c61cf9cec,participant,Zaligheid,,,,,,,,,,,,,,,,,,,,,,,,
,park1,flow.Sequence,10,,,completion,18750.883000011905,576330.1999999881,576329.31,576345.917,595096.8000000119,595097.1999999881,2023-11-30T15:29:52.828Z,595103.064,iscL5PpdhD,full,klassikaal_3,652fe10cdc68ac1c61cf9cec,participant,Zaligheid,,,,,,,,,,,,,,,,,,,,,,,,
,prepare,html.Page,11_0,,,form submission,41678.03600002383,595097.3000000119,595085.955,595103.064,636781.1000000238,636781.3000000119,2023-11-30T15:30:34.512Z,636785.602,iscL5PpdhD,full,klassikaal_3,652fe10cdc68ac1c61cf9cec,participant,Zaligheid,,,,,,,,,,,,,,,,,,,,,,,,
,park2-image,html.Page,11_1,,,form submission,19892.898000000045,636781.5,636769.118,636785.602,656678.5,656679.3999999762,2023-11-30T15:30:54.410Z,656693.352,iscL5PpdhD,full,klassikaal_3,652fe10cdc68ac1c61cf9cec,participant,Zaligheid,,,,,,,,,,,,,,,,,,,,,,,,
,answer,html.Page,11_2,,,form submission,13913.448000011966,656679.6000000238,656676.877,656693.352,670606.8000000119,670607,2023-11-30T15:31:08.338Z,670615.343,iscL5PpdhD,full,klassikaal_3,652fe10cdc68ac1c61cf9cec,participant,Zaligheid,,,,,,,,,,,,,,,,,,,,,,,,
,park2,flow.Sequence,11,,,completion,75503.73600001191,595097.3000000119,595085.955,595103.064,670606.8000000119,670607.1999999881,2023-11-30T15:31:08.338Z,670615.343,iscL5PpdhD,full,klassikaal_3,652fe10cdc68ac1c61cf9cec,participant,Zaligheid,,,,,,,,,,,,,,,,,,,,,,,,
,bedankt,html.Page,12,,,timeout,3001.3129999999655,670607.3999999762,670599.103,670615.343,673599.987,673601.3999999762,2023-11-30T15:31:11.332Z,673616.656,iscL5PpdhD,full,klassikaal_3,652fe10cdc68ac1c61cf9cec,participant,Zaligheid,,,,,,,,,,,,,,,,,,,,,,,,
,root,flow.Sequence,,,,completion,672141.037,1467.699999988079,1425.642,1458.95,673599.987,673601.8000000119,2023-11-30T15:31:11.332Z,673616.656,iscL5PpdhD,full,klassikaal_3,652fe10cdc68ac1c61cf9cec,participant,Zaligheid,,,,,,,,,,,,,,,,,,,,,,,,