meta,sender,sender_type,sender_id,Order,,ended_on,duration,time_run,time_render,time_show,time_end,time_commit,timestamp,time_switch,openLabId,type,task,project,status,code,confirmationCode,participant_L1,university_level,age,gender,gender_other,try-out_answer_L2,try-out_answer_L1,beach1_answer_L2,beach1_answer_L1,street1_answer_L2,street1_answer_L1,farm1_answer_L2,farm1_answer_L1,beach2_answer_L2,beach2_answer_L1,street2_answer_L2,street2_answer_L1,farm2_answer_L2,farm2_answer_L1,park1_answer_L2,park1_answer_L1,park2_answer_L2,park2_answer_L1
"{""labjs_version"":""20.2.4"",""labjs_build"":{""flavor"":""production"",""commit"":""f5b4a49f956347addd546a832a3327688c2c0fef""},""location"":""https://open-lab.online/test/klassikaal_3/6568a7a5fa275e2b7bdee476"",""userAgent"":""Mozilla/5.0 (Windows NT 10.0; Win64; x64) AppleWebKit/537.36 (KHTML, like Gecko) Chrome/112.0.0.0 Safari/537.36"",""platform"":""Win32"",""language"":""fr-FR"",""locale"":""fr"",""timeZone"":""Europe/Brussels"",""timezoneOffset"":-60,""screen_width"":1197,""screen_height"":673,""scroll_width"":1198,""scroll_height"":558,""window_innerWidth"":1197,""window_innerHeight"":558,""devicePixelRatio"":1.6050000190734863}",ID,html.Page,0,4,,form submission,7940.4949999761575,2662.2000000476837,2558.266,2674.905,10615.399999976158,10616.200000047684,2023-11-30T15:18:08.949Z,10625.078,goWtYpDDkU,full,klassikaal_3,652fe10cdc68ac1c61cf9cec,participant,Eline,256104,,,,,,,,,,,,,,,,,,,,,,,
,language,html.Page,1,,,form submission,21173.52200002384,10616.5,10608.547,10625.078,31798.600000023842,31798.800000071526,2023-11-30T15:18:30.131Z,31808.794,goWtYpDDkU,full,klassikaal_3,652fe10cdc68ac1c61cf9cec,participant,Eline,,Frans,BA,,,,,,,,,,,,,,,,,,,,,
,age-gender,html.Page,2,,,form submission,18594.206,31799,31793.288,31808.794,50403,50403.5,2023-11-30T15:18:48.736Z,50409.107,goWtYpDDkU,full,klassikaal_3,652fe10cdc68ac1c61cf9cec,participant,Eline,,,,19,v,,,,,,,,,,,,,,,,,,,
,prepare,html.Page,3_0,,,form submission,218254.99300002382,50403.800000071526,50392.714,50409.107,268664.10000002384,268664.5,2023-11-30T15:22:26.995Z,268679.635,goWtYpDDkU,full,klassikaal_3,652fe10cdc68ac1c61cf9cec,participant,Eline,,,,,,,,,,,,,,,,,,,,,,,,
,try-out-image,html.Page,3_1,,,form submission,34149.46500002383,268664.7000000477,268663.167,268679.635,302829.10000002384,302829.60000002384,2023-11-30T15:23:01.160Z,302830.237,goWtYpDDkU,full,klassikaal_3,652fe10cdc68ac1c61cf9cec,participant,Eline,,,,,,,de twee eenden,les 2 canards,,,,,,,,,,,,,,,,
,answer,html.Page,3_2,,,form submission,5782.662999976135,302829.8000000715,302813.66,302830.237,308612.89999997616,308613.3000000715,2023-11-30T15:23:06.944Z,308613.706,goWtYpDDkU,full,klassikaal_3,652fe10cdc68ac1c61cf9cec,participant,Eline,,,,,,,,,,,,,,,,,,,,,,,,
,try-out,flow.Sequence,3,,,completion,258203.79299997614,50403.700000047684,50392.714,50409.107,308612.89999997616,308616.8000000715,2023-11-30T15:23:06.948Z,308613.706,goWtYpDDkU,full,klassikaal_3,652fe10cdc68ac1c61cf9cec,participant,Eline,,,,,,,,,,,,,,,,,,,,,,,,
,prepare,html.Page,4_0,,,form submission,44938.894000023836,308617.10000002384,308597.035,308613.706,353552.60000002384,353553,2023-11-30T15:23:51.886Z,353564.462,goWtYpDDkU,full,klassikaal_3,652fe10cdc68ac1c61cf9cec,participant,Eline,,,,,,,,,,,,,,,,,,,,,,,,
,beach1-image,html.Page,4_1,,,form submission,12113.338000071526,353553.2000000477,353547.956,353564.462,365677.8000000715,365678.10000002384,2023-11-30T15:24:04.011Z,365681.698,goWtYpDDkU,full,klassikaal_3,652fe10cdc68ac1c61cf9cec,participant,Eline,,,,,,,,,de man aan het vissen,l'homme qui pêche,,,,,,,,,,,,,,
,answer,html.Page,4_2,,,form submission,43956.00200004771,365678.2000000477,365664.829,365681.698,409637.7000000477,409638.2000000477,2023-11-30T15:24:47.971Z,409648.937,goWtYpDDkU,full,klassikaal_3,652fe10cdc68ac1c61cf9cec,participant,Eline,,,,,,,,,,,,,,,,,,,,,,,,
,beach1,flow.Sequence,4,,,completion,101023.99400004768,308617.10000002384,308597.035,308613.706,409637.7000000477,409638.5,2023-11-30T15:24:47.972Z,409648.937,goWtYpDDkU,full,klassikaal_3,652fe10cdc68ac1c61cf9cec,participant,Eline,,,,,,,,,,,,,,,,,,,,,,,,
,prepare,html.Page,5_0,,,form submission,8213.462999976182,409638.60000002384,409634.297,409648.937,417862.39999997616,417862.8000000715,2023-11-30T15:24:56.196Z,417865.617,goWtYpDDkU,full,klassikaal_3,652fe10cdc68ac1c61cf9cec,participant,Eline,,,,,,,,,,,,,,,,,,,,,,,,
,street1-image,html.Page,5_1,,,form submission,21076.183000071498,417862.89999997616,417849.038,417865.617,438941.8000000715,438942.3000000715,2023-11-30T15:25:17.275Z,438949.275,goWtYpDDkU,full,klassikaal_3,652fe10cdc68ac1c61cf9cec,participant,Eline,,,,,,,,,,,witte en rode lijnen,les lignes rouges et blanches,,,,,,,,,,,,
,answer,html.Page,5_2,,,form submission,36651.42500004766,438942.39999997616,438932.766,438949.275,475600.7000000477,475601.2000000477,2023-11-30T15:25:53.934Z,475616.623,goWtYpDDkU,full,klassikaal_3,652fe10cdc68ac1c61cf9cec,participant,Eline,,,,,,,,,,,,,,,,,,,,,,,,
,street1,flow.Sequence,5,,,completion,65951.76300004771,409638.60000002384,409634.297,409648.937,475600.7000000477,475601.5,2023-11-30T15:25:53.934Z,475616.623,goWtYpDDkU,full,klassikaal_3,652fe10cdc68ac1c61cf9cec,participant,Eline,,,,,,,,,,,,,,,,,,,,,,,,
,prepare,html.Page,6_0,,,form submission,837.7769999761367,475601.7000000477,475600.009,475616.623,476454.39999997616,476454.89999997616,2023-11-30T15:25:54.788Z,476466.635,goWtYpDDkU,full,klassikaal_3,652fe10cdc68ac1c61cf9cec,participant,Eline,,,,,,,,,,,,,,,,,,,,,,,,
,farm1-image,html.Page,6_1,,,form submission,16876.76499997615,476455.10000002384,476453.618,476466.635,493343.39999997616,493343.89999997616,2023-11-30T15:26:11.677Z,493350.248,goWtYpDDkU,full,klassikaal_3,652fe10cdc68ac1c61cf9cec,participant,Eline,,,,,,,,,,,,,,,,,,,,,,,,
,answer,html.Page,6_2,,,form submission,12577.651999976137,493344.10000002384,493335.912,493350.248,505927.89999997616,505928.3000000715,2023-11-30T15:26:24.261Z,505933.792,goWtYpDDkU,full,klassikaal_3,652fe10cdc68ac1c61cf9cec,participant,Eline,,,,,,,,,,,,,,,,,,,,,,,,
,farm1,flow.Sequence,6,,,completion,30311.276999976137,475601.60000002384,475600.009,475616.623,505927.89999997616,505928.39999997616,2023-11-30T15:26:24.262Z,505933.792,goWtYpDDkU,full,klassikaal_3,652fe10cdc68ac1c61cf9cec,participant,Eline,,,,,,,,,,,,,,,,,,,,,,,,
,prepare,html.Page,7_0,,,form submission,26801.408000047668,505928.7000000477,505917.203,505933.792,532735.2000000477,532735.6000000238,2023-11-30T15:26:51.069Z,532750.962,goWtYpDDkU,full,klassikaal_3,652fe10cdc68ac1c61cf9cec,participant,Eline,,,,,,,,,,,,,,,,,,,,,,,,
,beach2-image,html.Page,7_1,,,form submission,13076.838000071468,532735.8000000715,532734.45,532750.962,545827.8000000715,545828.2000000477,2023-11-30T15:27:04.159Z,545834.522,goWtYpDDkU,full,klassikaal_3,652fe10cdc68ac1c61cf9cec,participant,Eline,,,,,,,,,,,,,,,"twee mannen die de auto duwen ",,,,,,,,,
,answer,html.Page,7_2,,,form submission,3502.7780000715284,545828.3000000715,545817.996,545834.522,549337.3000000715,549337.6000000238,2023-11-30T15:27:07.669Z,549351.422,goWtYpDDkU,full,klassikaal_3,652fe10cdc68ac1c61cf9cec,participant,Eline,,,,,,,,,,,,,,,,,,,,,,,,
,beach2,flow.Sequence,7,,,completion,43403.50800007151,505928.5,505917.203,505933.792,549337.3000000715,549337.8999999762,2023-11-30T15:27:07.669Z,549351.422,goWtYpDDkU,full,klassikaal_3,652fe10cdc68ac1c61cf9cec,participant,Eline,,,,,,,,,,,,,,,,,,,,,,,,
,prepare,html.Page,8_0,,,form submission,38064.57799999998,549338,549334.78,549351.422,587416,587416.2000000477,2023-11-30T15:27:45.748Z,587418.576,goWtYpDDkU,full,klassikaal_3,652fe10cdc68ac1c61cf9cec,participant,Eline,,,,,,,,,,,,,,,,,,,,,,,,
,street2-image,html.Page,8_1,,,form submission,7717.923999999999,587416.3000000715,587403.517,587418.576,595136.5,595136.8999999762,2023-11-30T15:27:53.468Z,595153.619,goWtYpDDkU,full,klassikaal_3,652fe10cdc68ac1c61cf9cec,participant,Eline,,,,,,,,,,,,,,,,,de rode strik op de beer,,,,,,,
,answer,html.Page,8_2,,,form submission,13227.981000023894,595137.2000000477,595118.826,595153.619,608381.6000000238,608381.8999999762,2023-11-30T15:28:06.714Z,608385.612,goWtYpDDkU,full,klassikaal_3,652fe10cdc68ac1c61cf9cec,participant,Eline,,,,,,,,,,,,,,,,,,,,,,,,
,street2,flow.Sequence,8,,,completion,59030.17800002382,549338,549334.78,549351.422,608381.6000000238,608382.2000000477,2023-11-30T15:28:06.715Z,608385.612,goWtYpDDkU,full,klassikaal_3,652fe10cdc68ac1c61cf9cec,participant,Eline,,,,,,,,,,,,,,,,,,,,,,,,
,prepare,html.Page,9_0,,,form submission,48501.48800002388,608382.3000000715,608369.145,608385.612,656887.1000000238,656887.6000000238,2023-11-30T15:28:55.220Z,656918.755,goWtYpDDkU,full,klassikaal_3,652fe10cdc68ac1c61cf9cec,participant,Eline,,,,,,,,,,,,,,,,,,,,,,,,
,farm2-image,html.Page,9_1,,,form submission,3536.1449999761535,656888.3000000715,656869.919,656918.755,660454.8999999762,660455.3999999762,2023-11-30T15:28:58.788Z,660482.287,goWtYpDDkU,full,klassikaal_3,652fe10cdc68ac1c61cf9cec,participant,Eline,,,,,,,,,,,,,,,,,,,,,,,,
,answer,html.Page,9_2,,,form submission,6755.212999999989,660455.6000000238,660439.02,660482.287,667237.5,667237.8999999762,2023-11-30T15:29:05.570Z,667270.141,goWtYpDDkU,full,klassikaal_3,652fe10cdc68ac1c61cf9cec,participant,Eline,,,,,,,,,,,,,,,,,,,,,,,,
,farm2,flow.Sequence,9,,,completion,58851.888000000035,608382.2000000477,608369.145,608385.612,667237.5,667238.3000000715,2023-11-30T15:29:05.571Z,667270.141,goWtYpDDkU,full,klassikaal_3,652fe10cdc68ac1c61cf9cec,participant,Eline,,,,,,,,,,,,,,,,,,,,,,,,
,prepare,html.Page,10_0,,,form submission,31663.859000000055,667238.5,667253.494,667270.141,698934,698934.2000000477,2023-11-30T15:29:37.267Z,698953.891,goWtYpDDkU,full,klassikaal_3,652fe10cdc68ac1c61cf9cec,participant,Eline,,,,,,,,,,,,,,,,,,,,,,,,
,park1-image,html.Page,10_1,,,form submission,14038.508999976213,698934.3000000715,698937.232,698953.891,712992.3999999762,712992.7000000477,2023-11-30T15:29:51.325Z,713004.268,goWtYpDDkU,full,klassikaal_3,652fe10cdc68ac1c61cf9cec,participant,Eline,,,,,,,,,,,,,,,,,,,,,de kind met de fietst,,,
,answer,html.Page,10_2,,,form submission,7207.23199999996,712992.8999999762,712987.603,713004.268,720211.5,720211.7000000477,2023-11-30T15:29:58.545Z,720220.975,goWtYpDDkU,full,klassikaal_3,652fe10cdc68ac1c61cf9cec,participant,Eline,,,,,,,,,,,,,,,,,,,,,,,,
,park1,flow.Sequence,10,,,completion,52941.359000000055,667238.5,667253.494,667270.141,720211.5,720212,2023-11-30T15:29:58.545Z,720220.975,goWtYpDDkU,full,klassikaal_3,652fe10cdc68ac1c61cf9cec,participant,Eline,,,,,,,,,,,,,,,,,,,,,,,,
,prepare,html.Page,11_0,,,form submission,39325.52500000002,720212.1000000238,720205.443,720220.975,759546.5,759547,2023-11-30T15:30:37.880Z,759554.945,goWtYpDDkU,full,klassikaal_3,652fe10cdc68ac1c61cf9cec,participant,Eline,,,,,,,,,,,,,,,,,,,,,,,,
,park2-image,html.Page,11_1,,,form submission,11197.155000023893,759547.2000000477,759538.445,759554.945,770752.1000000238,770752.5,2023-11-30T15:30:49.085Z,770755.165,goWtYpDDkU,full,klassikaal_3,652fe10cdc68ac1c61cf9cec,participant,Eline,,,,,,,,,,,,,,,,,,,,,,,geen witte bloemen,
,answer,html.Page,11_2,,,form submission,7354.635000071488,770752.6000000238,770740.338,770755.165,778109.8000000715,778110.2000000477,2023-11-30T15:30:56.443Z,778122.092,goWtYpDDkU,full,klassikaal_3,652fe10cdc68ac1c61cf9cec,participant,Eline,,,,,,,,,,,,,,,,,,,,,,,,
,park2,flow.Sequence,11,,,completion,57888.82500007155,720212,720205.443,720220.975,778109.8000000715,778110.3999999762,2023-11-30T15:30:56.443Z,778122.092,goWtYpDDkU,full,klassikaal_3,652fe10cdc68ac1c61cf9cec,participant,Eline,,,,,,,,,,,,,,,,,,,,,,,,
,bedankt,html.Page,12,,,timeout,2999.923000000068,778110.7000000477,778105.525,778122.092,781105.399,781106.8999999762,2023-11-30T15:30:59.440Z,781122.015,goWtYpDDkU,full,klassikaal_3,652fe10cdc68ac1c61cf9cec,participant,Eline,,,,,,,,,,,,,,,,,,,,,,,,
,root,flow.Sequence,,,,completion,778430.494,2662,2558.266,2674.905,781105.399,781107.1000000238,2023-11-30T15:30:59.440Z,781122.015,goWtYpDDkU,full,klassikaal_3,652fe10cdc68ac1c61cf9cec,participant,Eline,,,,,,,,,,,,,,,,,,,,,,,,