meta,sender,sender_type,sender_id,Order,,ended_on,duration,time_run,time_render,time_show,time_end,time_commit,timestamp,time_switch,openLabId,type,task,project,status,code,confirmationCode,participant_L1,university_level,age,gender,gender_other,try-out_answer_L2,try-out_answer_L1,beach1_answer_L2,beach1_answer_L1,street1_answer_L2,street1_answer_L1,farm1_answer_L2,farm1_answer_L1,beach2_answer_L2,beach2_answer_L1,street2_answer_L2,street2_answer_L1,farm2_answer_L2,farm2_answer_L1,park1_answer_L2,park1_answer_L1,park2_answer_L2,park2_answer_L1
"{""labjs_version"":""20.2.4"",""labjs_build"":{""flavor"":""production"",""commit"":""f5b4a49f956347addd546a832a3327688c2c0fef""},""location"":""https://open-lab.online/test/klassikaal_3/6568a76bfa275e2b7bdee458"",""userAgent"":""Mozilla/5.0 (Windows NT 10.0; Win64; x64) AppleWebKit/537.36 (KHTML, like Gecko) Chrome/119.0.0.0 Safari/537.36 Edg/119.0.0.0"",""platform"":""Win32"",""language"":""fr"",""locale"":""fr-BE"",""timeZone"":""Europe/Brussels"",""timezoneOffset"":-60,""screen_width"":1536,""screen_height"":1024,""scroll_width"":1528,""scroll_height"":854,""window_innerWidth"":1528,""window_innerHeight"":902,""devicePixelRatio"":1}",ID,html.Page,0,4,,form submission,3445.093,2062,2005.467,2055.407,5500.5,5501.100000023842,2023-11-30T15:17:06.013Z,5515.979,_97MtJifl6,full,klassikaal_3,652fe10cdc68ac1c61cf9cec,participant,Héloïse,200730,,,,,,,,,,,,,,,,,,,,,,,
,language,html.Page,1,,,form submission,25410.42099997616,5501.399999976158,5493.633,5515.979,30926.399999976158,30927,2023-11-30T15:17:31.439Z,30927.465,_97MtJifl6,full,klassikaal_3,652fe10cdc68ac1c61cf9cec,participant,Héloïse,,Frans,BA,,,,,,,,,,,,,,,,,,,,,
,age-gender,html.Page,2,,,form submission,15879.834999952316,30927.399999976158,30924.358,30927.465,46807.299999952316,46807.799999952316,2023-11-30T15:17:47.320Z,46825.314,_97MtJifl6,full,klassikaal_3,652fe10cdc68ac1c61cf9cec,participant,Héloïse,,,,18,v,,,,,,,,,,,,,,,,,,,
,prepare,html.Page,3_0,,,form submission,286691.2860000238,46808.10000002384,46790.406,46825.314,333516.60000002384,333517.10000002384,2023-11-30T15:22:34.030Z,333533.205,_97MtJifl6,full,klassikaal_3,652fe10cdc68ac1c61cf9cec,participant,Héloïse,,,,,,,,,,,,,,,,,,,,,,,,
,try-out-image,html.Page,3_1,,,form submission,46306.19499997614,333517.2999999523,333514.755,333533.205,379839.39999997616,379839.89999997616,2023-11-30T15:23:20.352Z,379861.972,_97MtJifl6,full,klassikaal_3,652fe10cdc68ac1c61cf9cec,participant,Héloïse,,,,,,,De eend,,,,,,,,,,,,,,,,,
,answer,html.Page,3_2,,,form submission,2630.3279999523074,379840.10000002384,379822.679,379861.972,382492.2999999523,382492.7999999523,2023-11-30T15:23:23.005Z,382502.241,_97MtJifl6,full,klassikaal_3,652fe10cdc68ac1c61cf9cec,participant,Héloïse,,,,,,,,,,,,,,,,,,,,,,,,
,try-out,flow.Sequence,3,,,completion,335666.9859999523,46808.10000002384,46790.406,46825.314,382492.2999999523,382496.10000002384,2023-11-30T15:23:23.009Z,382502.241,_97MtJifl6,full,klassikaal_3,652fe10cdc68ac1c61cf9cec,participant,Héloïse,,,,,,,,,,,,,,,,,,,,,,,,
,prepare,html.Page,4_0,,,form submission,28355.959000047704,382496.39999997616,382484.213,382502.241,410858.2000000477,410858.60000002384,2023-11-30T15:23:51.371Z,410863.884,_97MtJifl6,full,klassikaal_3,652fe10cdc68ac1c61cf9cec,participant,Héloïse,,,,,,,,,,,,,,,,,,,,,,,,
,beach1-image,html.Page,4_1,,,form submission,23502.915999952296,410858.89999997616,410845.039,410863.884,434366.7999999523,434367.2000000477,2023-11-30T15:24:14.880Z,434377.988,_97MtJifl6,full,klassikaal_3,652fe10cdc68ac1c61cf9cec,participant,Héloïse,,,,,,,,,,"canne à pêche ",,,,,,,,,,,,,,
,answer,html.Page,4_2,,,form submission,43787.51199999999,434367.5,434349.262,434377.988,478165.5,478165.7000000477,2023-11-30T15:24:58.678Z,478172.377,_97MtJifl6,full,klassikaal_3,652fe10cdc68ac1c61cf9cec,participant,Héloïse,,,,,,,,,,,,,,,,,,,,,,,,
,beach1,flow.Sequence,4,,,completion,95663.25900000002,382496.2999999523,382484.213,382502.241,478165.5,478165.89999997616,2023-11-30T15:24:58.678Z,478172.377,_97MtJifl6,full,klassikaal_3,652fe10cdc68ac1c61cf9cec,participant,Héloïse,,,,,,,,,,,,,,,,,,,,,,,,
,prepare,html.Page,5_0,,,form submission,1756.0229999761796,478166,478151.822,478172.377,479928.39999997616,479928.7999999523,2023-11-30T15:25:00.441Z,479936.815,_97MtJifl6,full,klassikaal_3,652fe10cdc68ac1c61cf9cec,participant,Héloïse,,,,,,,,,,,,,,,,,,,,,,,,
,street1-image,html.Page,5_1,,,form submission,12403.684999999998,479929,479911.066,479936.815,492340.5,492341,2023-11-30T15:25:12.854Z,492362.476,_97MtJifl6,full,klassikaal_3,652fe10cdc68ac1c61cf9cec,participant,Héloïse,,,,,,,,,,,geen rode en witte strepen,,,,,,,,,,,,,
,answer,html.Page,5_2,,,form submission,6381.923999976134,492341.2000000477,492321.777,492362.476,498744.39999997616,498744.89999997616,2023-11-30T15:25:19.257Z,498751.556,_97MtJifl6,full,klassikaal_3,652fe10cdc68ac1c61cf9cec,participant,Héloïse,,,,,,,,,,,,,,,,,,,,,,,,
,street1,flow.Sequence,5,,,completion,20572.02299997618,478166,478151.822,478172.377,498744.39999997616,498745.10000002384,2023-11-30T15:25:19.258Z,498751.556,_97MtJifl6,full,klassikaal_3,652fe10cdc68ac1c61cf9cec,participant,Héloïse,,,,,,,,,,,,,,,,,,,,,,,,
,prepare,html.Page,6_0,,,form submission,22919.944000000018,498745.2999999523,498733.701,498751.556,521671.5,521671.7999999523,2023-11-30T15:25:42.184Z,521688.145,_97MtJifl6,full,klassikaal_3,652fe10cdc68ac1c61cf9cec,participant,Héloïse,,,,,,,,,,,,,,,,,,,,,,,,
,farm1-image,html.Page,6_1,,,form submission,9169.455000023823,521671.89999997616,521667.63,521688.145,530857.6000000238,530858.1000000238,2023-11-30T15:25:51.371Z,530860.169,_97MtJifl6,full,klassikaal_3,652fe10cdc68ac1c61cf9cec,participant,Héloïse,,,,,,,,,,,,,de ketting,,,,,,,,,,,
,answer,html.Page,6_2,,,form submission,12604.931000023847,530858.2999999523,530843.61,530860.169,543465.1000000238,543465.5,2023-11-30T15:26:03.978Z,543472.739,_97MtJifl6,full,klassikaal_3,652fe10cdc68ac1c61cf9cec,participant,Héloïse,,,,,,,,,,,,,,,,,,,,,,,,
,farm1,flow.Sequence,6,,,completion,44713.54400002386,498745.2000000477,498733.701,498751.556,543465.1000000238,543465.7000000477,2023-11-30T15:26:03.978Z,543472.739,_97MtJifl6,full,klassikaal_3,652fe10cdc68ac1c61cf9cec,participant,Héloïse,,,,,,,,,,,,,,,,,,,,,,,,
,prepare,html.Page,7_0,,,form submission,45563.46100004774,543465.8999999762,543453.704,543472.739,589036.2000000477,589036.5,2023-11-30T15:26:49.549Z,589039.355,_97MtJifl6,full,klassikaal_3,652fe10cdc68ac1c61cf9cec,participant,Héloïse,,,,,,,,,,,,,,,,,,,,,,,,
,beach2-image,html.Page,7_1,,,form submission,15416.944999952335,589036.6000000238,589022.631,589039.355,604456.2999999523,604456.6000000238,2023-11-30T15:27:04.969Z,604484.512,_97MtJifl6,full,klassikaal_3,652fe10cdc68ac1c61cf9cec,participant,Héloïse,,,,,,,,,,,,,,,Er mist drie mannen,,,,,,,,,
,answer,html.Page,7_2,,,form submission,7544.287999952328,604456.7000000477,604451.442,604484.512,612028.7999999523,612029.2000000477,2023-11-30T15:27:12.542Z,612053.966,_97MtJifl6,full,klassikaal_3,652fe10cdc68ac1c61cf9cec,participant,Héloïse,,,,,,,,,,,,,,,,,,,,,,,,
,beach2,flow.Sequence,7,,,completion,68556.06099995237,543465.7999999523,543453.704,543472.739,612028.7999999523,612029.5,2023-11-30T15:27:12.542Z,612053.966,_97MtJifl6,full,klassikaal_3,652fe10cdc68ac1c61cf9cec,participant,Héloïse,,,,,,,,,,,,,,,,,,,,,,,,
,prepare,html.Page,8_0,,,form submission,30405.73400004767,612029.6000000238,612020.185,612053.966,642459.7000000477,642460,2023-11-30T15:27:42.972Z,642471.756,_97MtJifl6,full,klassikaal_3,652fe10cdc68ac1c61cf9cec,participant,Héloïse,,,,,,,,,,,,,,,,,,,,,,,,
,street2-image,html.Page,8_1,,,form submission,22345.84400002379,642460.1000000238,642445.083,642471.756,664817.6000000238,664817.8999999762,2023-11-30T15:28:05.330Z,664844.753,_97MtJifl6,full,klassikaal_3,652fe10cdc68ac1c61cf9cec,participant,Héloïse,,,,,,,,,,,,,,,,,"er wordt geen ding verkocht ",,,,,,,
,answer,html.Page,8_2,,,form submission,7630.54699995229,664818.1000000238,664811.603,664844.753,672475.2999999523,672475.5,2023-11-30T15:28:12.988Z,672501.837,_97MtJifl6,full,klassikaal_3,652fe10cdc68ac1c61cf9cec,participant,Héloïse,,,,,,,,,,,,,,,,,,,,,,,,
,street2,flow.Sequence,8,,,completion,60421.3339999523,612029.6000000238,612020.185,612053.966,672475.2999999523,672475.6000000238,2023-11-30T15:28:12.988Z,672501.837,_97MtJifl6,full,klassikaal_3,652fe10cdc68ac1c61cf9cec,participant,Héloïse,,,,,,,,,,,,,,,,,,,,,,,,
,prepare,html.Page,9_0,,,form submission,30401.263000023784,672475.7000000477,672462.045,672501.837,702903.1000000238,702903.5,2023-11-30T15:28:43.416Z,702911.956,_97MtJifl6,full,klassikaal_3,652fe10cdc68ac1c61cf9cec,participant,Héloïse,,,,,,,,,,,,,,,,,,,,,,,,
,farm2-image,html.Page,9_1,,,form submission,5834.543999999994,702903.6000000238,702885.632,702911.956,708746.5,708746.7999999523,2023-11-30T15:28:49.259Z,708770.507,_97MtJifl6,full,klassikaal_3,652fe10cdc68ac1c61cf9cec,participant,Héloïse,,,,,,,,,,,,,,,,,,,,,,,,
,answer,html.Page,9_2,,,form submission,4305.792999952333,708747,708731.859,708770.507,713076.2999999523,713076.7000000477,2023-11-30T15:28:53.589Z,713098.425,_97MtJifl6,full,klassikaal_3,652fe10cdc68ac1c61cf9cec,participant,Héloïse,,,,,,,,,,,,,,,,,,,,,,,,
,farm2,flow.Sequence,9,,,completion,40574.46299995226,672475.6000000238,672462.045,672501.837,713076.2999999523,713076.8999999762,2023-11-30T15:28:53.589Z,713098.425,_97MtJifl6,full,klassikaal_3,652fe10cdc68ac1c61cf9cec,participant,Héloïse,,,,,,,,,,,,,,,,,,,,,,,,
,prepare,html.Page,10_0,,,form submission,45802.87499995227,713077.1000000238,713065.149,713098.425,758901.2999999523,758901.7000000477,2023-11-30T15:29:39.414Z,758923.646,_97MtJifl6,full,klassikaal_3,652fe10cdc68ac1c61cf9cec,participant,Héloïse,,,,,,,,,,,,,,,,,,,,,,,,
,park1-image,html.Page,10_1,,,form submission,11085.554000047734,758901.7999999523,758890.331,758923.646,770009.2000000477,770009.5,2023-11-30T15:29:50.522Z,770027.84,_97MtJifl6,full,klassikaal_3,652fe10cdc68ac1c61cf9cec,participant,Héloïse,,,,,,,,,,,,,,,,,,,,,Geen kind dat fietst,,,
,answer,html.Page,10_2,,,form submission,14163.760000023874,770009.7000000477,769994.576,770027.84,784191.6000000238,784191.8999999762,2023-11-30T15:30:04.704Z,784219.566,_97MtJifl6,full,klassikaal_3,652fe10cdc68ac1c61cf9cec,participant,Héloïse,,,,,,,,,,,,,,,,,,,,,,,,
,park1,flow.Sequence,10,,,completion,71093.1750000238,713077,713065.149,713098.425,784191.6000000238,784191.8999999762,2023-11-30T15:30:04.704Z,784219.566,_97MtJifl6,full,klassikaal_3,652fe10cdc68ac1c61cf9cec,participant,Héloïse,,,,,,,,,,,,,,,,,,,,,,,,
,prepare,html.Page,11_0,,,form submission,34509.03400002385,784192.1000000238,784179.333,784219.566,818728.6000000238,818728.8999999762,2023-11-30T15:30:39.241Z,818754.273,_97MtJifl6,full,klassikaal_3,652fe10cdc68ac1c61cf9cec,participant,Héloïse,,,,,,,,,,,,,,,,,,,,,,,,
,park2-image,html.Page,11_1,,,form submission,10806.427000047639,818729,818721.981,818754.273,829560.7000000477,829561.1000000238,2023-11-30T15:30:50.074Z,829588.751,_97MtJifl6,full,klassikaal_3,652fe10cdc68ac1c61cf9cec,participant,Héloïse,,,,,,,,,,,,,,,,,,,,,,,geen witte bloemen,
,answer,html.Page,11_2,,,form submission,22089.64899997611,829561.2999999523,829555.761,829588.751,851678.3999999762,851678.7999999523,2023-11-30T15:31:12.191Z,851701.807,_97MtJifl6,full,klassikaal_3,652fe10cdc68ac1c61cf9cec,participant,Héloïse,,,,,,,,,,,,,,,,,,,,,,,,
,park2,flow.Sequence,11,,,completion,67458.83399997617,784192,784179.333,784219.566,851678.3999999762,851679,2023-11-30T15:31:12.192Z,851701.807,_97MtJifl6,full,klassikaal_3,652fe10cdc68ac1c61cf9cec,participant,Héloïse,,,,,,,,,,,,,,,,,,,,,,,,
,bedankt,html.Page,12,,,timeout,3009.814999999944,851679.2000000477,851667.31,851701.807,854678.219,854680.2999999523,2023-11-30T15:31:15.193Z,854711.622,_97MtJifl6,full,klassikaal_3,652fe10cdc68ac1c61cf9cec,participant,Héloïse,,,,,,,,,,,,,,,,,,,,,,,,
,root,flow.Sequence,,,,completion,852622.812,2061.899999976158,2005.467,2055.407,854678.219,854680.7000000477,2023-11-30T15:31:15.193Z,854711.622,_97MtJifl6,full,klassikaal_3,652fe10cdc68ac1c61cf9cec,participant,Héloïse,,,,,,,,,,,,,,,,,,,,,,,,