meta,sender,sender_type,sender_id,Order,,ended_on,duration,time_run,time_render,time_show,time_end,time_commit,timestamp,time_switch,openLabId,type,task,project,status,code,confirmationCode,participant_L1,university_level,age,gender,gender_other,try-out_answer_L2,try-out_answer_L1,beach1_answer_L2,beach1_answer_L1,street1_answer_L2,street1_answer_L1,farm1_answer_L2,farm1_answer_L1,beach2_answer_L2,beach2_answer_L1,street2_answer_L2,street2_answer_L1,farm2_answer_L2,farm2_answer_L1,park1_answer_L2,park1_answer_L1,park2_answer_L2,park2_answer_L1
"{""labjs_version"":""20.2.4"",""labjs_build"":{""flavor"":""production"",""commit"":""f5b4a49f956347addd546a832a3327688c2c0fef""},""location"":""https://open-lab.online/test/klassikaal_3/656da5f2fa275e2b7bdef778"",""userAgent"":""Mozilla/5.0 (Windows NT 10.0; Win64; x64) AppleWebKit/537.36 (KHTML, like Gecko) Chrome/119.0.0.0 Safari/537.36"",""platform"":""Win32"",""language"":""nl-NL"",""locale"":""nl"",""timeZone"":""Europe/Brussels"",""timezoneOffset"":-60,""screen_width"":1536,""screen_height"":864,""scroll_width"":1536,""scroll_height"":691,""window_innerWidth"":1536,""window_innerHeight"":739,""devicePixelRatio"":1.25}",ID,html.Page,0,4,,form submission,4439.273999952316,3788.5,3701.256,3784.526,8223.799999952316,8224.5,2023-12-04T10:12:09.403Z,8233.778,9_OW61OIMG,full,klassikaal_3,652fe10cdc68ac1c61cf9cec,participant,Delphine,538511,,,,,,,,,,,,,,,,,,,,,,,
,language,html.Page,1,,,form submission,26988.62199985695,8224.899999856949,8217.292,8233.778,35222.39999985695,35223,2023-12-04T10:12:36.402Z,35228.98,9_OW61OIMG,full,klassikaal_3,652fe10cdc68ac1c61cf9cec,participant,Delphine,,Nederlands,MA,,,,,,,,,,,,,,,,,,,,,
,age-gender,html.Page,2,,,form submission,5489.2200000476805,35223.200000047684,35212.453,35228.98,40718.200000047684,40718.59999990463,2023-12-04T10:12:41.898Z,40728.045,9_OW61OIMG,full,klassikaal_3,652fe10cdc68ac1c61cf9cec,participant,Delphine,,,,23,v,,,,,,,,,,,,,,,,,,,
,prepare,html.Page,3_0,,,form submission,93875.75499995232,40718.89999985695,40711.461,40728.045,134603.79999995232,134604.09999990463,2023-12-04T10:14:15.782Z,134611.536,9_OW61OIMG,full,klassikaal_3,652fe10cdc68ac1c61cf9cec,participant,Delphine,,,,,,,,,,,,,,,,,,,,,,,,
,try-out-image,html.Page,3_1,,,form submission,17981.06399990464,134604.29999995232,134595.094,134611.536,152592.59999990463,152593.09999990463,2023-12-04T10:14:33.771Z,152608.394,9_OW61OIMG,full,klassikaal_3,652fe10cdc68ac1c61cf9cec,participant,Delphine,,,,,,,"twee eenden ",twee eenden,,,,,,,,,,,,,,,,
,answer,html.Page,3_2,,,form submission,56524.905999952316,152593.29999995232,152591.792,152608.394,209133.29999995232,209133.5,2023-12-04T10:15:30.313Z,209148.593,9_OW61OIMG,full,klassikaal_3,652fe10cdc68ac1c61cf9cec,participant,Delphine,,,,,,,,,,,,,,,,,,,,,,,,
,try-out,flow.Sequence,3,,,completion,168405.25499995233,40718.89999985695,40711.461,40728.045,209133.29999995232,209136.20000004768,2023-12-04T10:15:30.315Z,209148.593,9_OW61OIMG,full,klassikaal_3,652fe10cdc68ac1c61cf9cec,participant,Delphine,,,,,,,,,,,,,,,,,,,,,,,,
,prepare,html.Page,4_0,,,form submission,2646.206999952323,209136.39999985695,209131.893,209148.593,211794.79999995232,211795.09999990463,2023-12-04T10:15:32.974Z,211798.019,9_OW61OIMG,full,klassikaal_3,652fe10cdc68ac1c61cf9cec,participant,Delphine,,,,,,,,,,,,,,,,,,,,,,,,
,beach1-image,html.Page,4_1,,,form submission,10877.080999904632,211795.39999985695,211781.54,211798.019,222675.09999990463,222675.5,2023-12-04T10:15:43.855Z,222679.402,9_OW61OIMG,full,klassikaal_3,652fe10cdc68ac1c61cf9cec,participant,Delphine,,,,,,,,,vislijn,"vislijn ",,,,,,,,,,,,,,
,answer,html.Page,4_2,,,form submission,18146.997999856947,222675.70000004768,222662.9,222679.402,240826.39999985695,240826.79999995232,2023-12-04T10:16:02.006Z,240826.25,9_OW61OIMG,full,klassikaal_3,652fe10cdc68ac1c61cf9cec,participant,Delphine,,,,,,,,,,,,,,,,,,,,,,,,
,beach1,flow.Sequence,4,,,completion,31677.806999856955,209136.29999995232,209131.893,209148.593,240826.39999985695,240827.09999990463,2023-12-04T10:16:02.006Z,240826.25,9_OW61OIMG,full,klassikaal_3,652fe10cdc68ac1c61cf9cec,participant,Delphine,,,,,,,,,,,,,,,,,,,,,,,,
,prepare,html.Page,5_0,,,form submission,21277.14999985695,240827.29999995232,240814.03,240826.25,262103.39999985695,262103.70000004768,2023-12-04T10:16:23.283Z,262105.803,9_OW61OIMG,full,klassikaal_3,652fe10cdc68ac1c61cf9cec,participant,Delphine,,,,,,,,,,,,,,,,,,,,,,,,
,street1-image,html.Page,5_1,,,form submission,16692.996999952302,262103.89999985695,262089.274,262105.803,278798.7999999523,278799.09999990463,2023-12-04T10:16:39.978Z,278802.975,9_OW61OIMG,full,klassikaal_3,652fe10cdc68ac1c61cf9cec,participant,Delphine,,,,,,,,,,,"luifel met wit en rode strepen ",luifel met wit en rode strepen,,,,,,,,,,,,
,answer,html.Page,5_2,,,form submission,6334.725000047707,278799.2000000477,278786.382,278802.975,285137.7000000477,285138.09999990463,2023-12-04T10:16:46.317Z,285151.778,9_OW61OIMG,full,klassikaal_3,652fe10cdc68ac1c61cf9cec,participant,Delphine,,,,,,,,,,,,,,,,,,,,,,,,
,street1,flow.Sequence,5,,,completion,44311.450000047684,240827.20000004768,240814.03,240826.25,285137.7000000477,285138.2999999523,2023-12-04T10:16:46.318Z,285151.778,9_OW61OIMG,full,klassikaal_3,652fe10cdc68ac1c61cf9cec,participant,Delphine,,,,,,,,,,,,,,,,,,,,,,,,
,prepare,html.Page,6_0,,,form submission,26623.32199990464,285138.39999985695,285135.209,285151.778,311775.09999990463,311775.39999985695,2023-12-04T10:17:12.955Z,311780.418,9_OW61OIMG,full,klassikaal_3,652fe10cdc68ac1c61cf9cec,participant,Delphine,,,,,,,,,,,,,,,,,,,,,,,,
,farm1-image,html.Page,6_1,,,form submission,10379.282000047679,311775.59999990463,311763.861,311780.418,322159.7000000477,322160,2023-12-04T10:17:23.339Z,322178.64,9_OW61OIMG,full,klassikaal_3,652fe10cdc68ac1c61cf9cec,participant,Delphine,,,,,,,,,,,,,kettingzaag,kettingzaag,,,,,,,,,,
,answer,html.Page,6_2,,,form submission,9840.959999904619,322160.2000000477,322161.903,322178.64,332019.59999990463,332019.89999985695,2023-12-04T10:17:33.199Z,332026.862,9_OW61OIMG,full,klassikaal_3,652fe10cdc68ac1c61cf9cec,participant,Delphine,,,,,,,,,,,,,,,,,,,,,,,,
,farm1,flow.Sequence,6,,,completion,46867.82199990464,285138.39999985695,285135.209,285151.778,332019.59999990463,332020.09999990463,2023-12-04T10:17:33.199Z,332026.862,9_OW61OIMG,full,klassikaal_3,652fe10cdc68ac1c61cf9cec,participant,Delphine,,,,,,,,,,,,,,,,,,,,,,,,
,prepare,html.Page,7_0,,,form submission,28754.537999856926,332020.2999999523,332010.303,332026.862,360781.39999985695,360781.7000000477,2023-12-04T10:18:01.961Z,360788.497,9_OW61OIMG,full,klassikaal_3,652fe10cdc68ac1c61cf9cec,participant,Delphine,,,,,,,,,,,,,,,,,,,,,,,,
,beach2-image,html.Page,7_1,,,form submission,13279.503000000026,360781.7999999523,360772.008,360788.497,374068,374068.2999999523,2023-12-04T10:18:15.248Z,374086.249,9_OW61OIMG,full,klassikaal_3,652fe10cdc68ac1c61cf9cec,participant,Delphine,,,,,,,,,,,,,,,twee mannen die de auto duwen,"twee mannen die de auto duwen ",,,,,,,,
,answer,html.Page,7_2,,,form submission,17094.75099999999,374068.39999985695,374069.507,374086.249,391181,391181.2999999523,2023-12-04T10:18:32.360Z,391199.881,9_OW61OIMG,full,klassikaal_3,652fe10cdc68ac1c61cf9cec,participant,Delphine,,,,,,,,,,,,,,,,,,,,,,,,
,beach2,flow.Sequence,7,,,completion,59154.13799999998,332020.2000000477,332010.303,332026.862,391181,391181.5,2023-12-04T10:18:32.360Z,391199.881,9_OW61OIMG,full,klassikaal_3,652fe10cdc68ac1c61cf9cec,participant,Delphine,,,,,,,,,,,,,,,,,,,,,,,,
,prepare,html.Page,8_0,,,form submission,25519.418999952322,391181.59999990463,391183.132,391199.881,416719.2999999523,416719.5,2023-12-04T10:18:57.898Z,416728.675,9_OW61OIMG,full,klassikaal_3,652fe10cdc68ac1c61cf9cec,participant,Delphine,,,,,,,,,,,,,,,,,,,,,,,,
,street2-image,html.Page,8_1,,,form submission,7221.325000000012,416719.7000000477,416712.07,416728.675,423950,423950.5,2023-12-04T10:19:05.129Z,423960.965,9_OW61OIMG,full,klassikaal_3,652fe10cdc68ac1c61cf9cec,participant,Delphine,,,,,,,,,,,,,,,,,rode strik,rode strik,,,,,,
,answer,html.Page,8_2,,,form submission,13436.235000047658,423950.7000000477,423944.158,423960.965,437397.2000000477,437397.39999985695,2023-12-04T10:19:18.576Z,437408.383,9_OW61OIMG,full,klassikaal_3,652fe10cdc68ac1c61cf9cec,participant,Delphine,,,,,,,,,,,,,,,,,,,,,,,,
,street2,flow.Sequence,8,,,completion,46197.31900004769,391181.59999990463,391183.132,391199.881,437397.2000000477,437397.59999990463,2023-12-04T10:19:18.577Z,437408.383,9_OW61OIMG,full,klassikaal_3,652fe10cdc68ac1c61cf9cec,participant,Delphine,,,,,,,,,,,,,,,,,,,,,,,,
,prepare,html.Page,9_0,,,form submission,44255.016999856976,437397.7999999523,437391.797,437408.383,481663.39999985695,481663.7999999523,2023-12-04T10:20:02.840Z,481667.264,9_OW61OIMG,full,klassikaal_3,652fe10cdc68ac1c61cf9cec,participant,Delphine,,,,,,,,,,,,,,,,,,,,,,,,
,farm2-image,html.Page,9_1,,,form submission,10922.635999856924,481663.89999985695,481650.658,481667.264,492589.89999985695,492590.2999999523,2023-12-04T10:20:13.766Z,492615.361,9_OW61OIMG,full,klassikaal_3,652fe10cdc68ac1c61cf9cec,participant,Delphine,,,,,,,,,,,,,,,,,,,strobalen,strobalen,,,,
,answer,html.Page,9_2,,,form submission,9967.339000047708,492590.7999999523,492598.68,492615.361,502582.7000000477,502583,2023-12-04T10:20:23.759Z,502597.014,9_OW61OIMG,full,klassikaal_3,652fe10cdc68ac1c61cf9cec,participant,Delphine,,,,,,,,,,,,,,,,,,,,,,,,
,farm2,flow.Sequence,9,,,completion,65174.31700004771,437397.7999999523,437391.797,437408.383,502582.7000000477,502583.2000000477,2023-12-04T10:20:23.759Z,502597.014,9_OW61OIMG,full,klassikaal_3,652fe10cdc68ac1c61cf9cec,participant,Delphine,,,,,,,,,,,,,,,,,,,,,,,,
,prepare,html.Page,10_0,,,form submission,20875.585999904608,502583.2999999523,502580.323,502597.014,523472.59999990463,523472.7999999523,2023-12-04T10:20:44.649Z,523476.529,9_OW61OIMG,full,klassikaal_3,652fe10cdc68ac1c61cf9cec,participant,Delphine,,,,,,,,,,,,,,,,,,,,,,,,
,park1-image,html.Page,10_1,,,form submission,11322.97100000002,523473,523460.103,523476.529,534799.5,534799.7000000477,2023-12-04T10:20:55.976Z,534807.946,9_OW61OIMG,full,klassikaal_3,652fe10cdc68ac1c61cf9cec,participant,Delphine,,,,,,,,,,,,,,,,,,,,,kindje op de fiets,kindje op de fiets,,
,answer,html.Page,10_2,,,form submission,50289.35399995232,534799.899999857,534791.444,534807.946,585097.2999999523,585097.7999999523,2023-12-04T10:21:46.273Z,585099.066,9_OW61OIMG,full,klassikaal_3,652fe10cdc68ac1c61cf9cec,participant,Delphine,,,,,,,,,,,,,,,,,,,,,,,,
,park1,flow.Sequence,10,,,completion,82500.28599995229,502583.2000000477,502580.323,502597.014,585097.2999999523,585098.2000000477,2023-12-04T10:21:46.273Z,585099.066,9_OW61OIMG,full,klassikaal_3,652fe10cdc68ac1c61cf9cec,participant,Delphine,,,,,,,,,,,,,,,,,,,,,,,,
,prepare,html.Page,11_0,,,form submission,1390.3339998569572,585098.399999857,585082.541,585099.066,586489.399999857,586489.5999999046,2023-12-04T10:21:47.664Z,586498.847,9_OW61OIMG,full,klassikaal_3,652fe10cdc68ac1c61cf9cec,participant,Delphine,,,,,,,,,,,,,,,,,,,,,,,,
,park2-image,html.Page,11_1,,,form submission,15308.15300000005,586489.7000000477,586482.305,586498.847,601807,601807.2999999523,2023-12-04T10:22:02.982Z,601829.456,9_OW61OIMG,full,klassikaal_3,652fe10cdc68ac1c61cf9cec,participant,Delphine,,,,,,,,,,,,,,,,,,,,,,,"bloembak letwitte bloemen ","bloembak met witte bloemen "
,answer,html.Page,11_2,,,form submission,7596.043999999994,601807.399999857,601812.819,601829.456,609425.5,609425.7999999523,2023-12-04T10:22:10.601Z,609428.159,9_OW61OIMG,full,klassikaal_3,652fe10cdc68ac1c61cf9cec,participant,Delphine,,,,,,,,,,,,,,,,,,,,,,,,
,park2,flow.Sequence,11,,,completion,24326.43400000001,585098.2999999523,585082.541,585099.066,609425.5,609426,2023-12-04T10:22:10.601Z,609428.159,9_OW61OIMG,full,klassikaal_3,652fe10cdc68ac1c61cf9cec,participant,Delphine,,,,,,,,,,,,,,,,,,,,,,,,
,bedankt,html.Page,12,,,timeout,2999.579999999958,609426.0999999046,609411.604,609428.159,612411.076,612412.899999857,2023-12-04T10:22:13.588Z,612427.739,9_OW61OIMG,full,klassikaal_3,652fe10cdc68ac1c61cf9cec,participant,Delphine,,,,,,,,,,,,,,,,,,,,,,,,
,root,flow.Sequence,,,,completion,608626.55,3788.2999999523163,3701.256,3784.526,612411.076,612413.5999999046,2023-12-04T10:22:13.588Z,612427.739,9_OW61OIMG,full,klassikaal_3,652fe10cdc68ac1c61cf9cec,participant,Delphine,,,,,,,,,,,,,,,,,,,,,,,,