meta,sender,sender_type,sender_id,Order,,ended_on,duration,time_run,time_render,time_show,time_end,time_commit,timestamp,time_switch,openLabId,type,task,project,status,code,confirmationCode,participant_L1,university_level,age,gender,gender_other,try-out_answer_L2,try-out_answer_L1,beach1_answer_L2,beach1_answer_L1,street1_answer_L2,street1_answer_L1,farm1_answer_L2,farm1_answer_L1,beach2_answer_L2,beach2_answer_L1,street2_answer_L2,street2_answer_L1,farm2_answer_L2,farm2_answer_L1,park1_answer_L2,park1_answer_L1,park2_answer_L2,park2_answer_L1
"{""labjs_version"":""20.2.4"",""labjs_build"":{""flavor"":""production"",""commit"":""f5b4a49f956347addd546a832a3327688c2c0fef""},""location"":""https://open-lab.online/test/klassikaal_3/656da5defa275e2b7bdef74d"",""userAgent"":""Mozilla/5.0 (Macintosh; Intel Mac OS X 10_15_7) AppleWebKit/605.1.15 (KHTML, like Gecko) Version/16.5.2 Safari/605.1.15"",""platform"":""MacIntel"",""language"":""nl-NL"",""locale"":""nl-NL"",""timeZone"":""Europe/Brussels"",""timezoneOffset"":-60,""screen_width"":1440,""screen_height"":900,""scroll_width"":1440,""scroll_height"":772,""window_innerWidth"":1440,""window_innerHeight"":820,""devicePixelRatio"":2}",ID,html.Page,0,4,,form submission,3489,1549,1566,1598,5087,5087,2023-12-04T10:11:47.080Z,5116,pYOxNKSFrZ,full,klassikaal_3,652fe10cdc68ac1c61cf9cec,participant,Mira,926521,,,,,,,,,,,,,,,,,,,,,,,
,language,html.Page,1,,,form submission,6688,5088,5098,5116,11804,11804,2023-12-04T10:11:53.796Z,11832,pYOxNKSFrZ,full,klassikaal_3,652fe10cdc68ac1c61cf9cec,participant,Mira,,Nederlands,MA,,,,,,,,,,,,,,,,,,,,,
,age-gender,html.Page,2,,,form submission,6391,11804,11816,11832,18223,18223,2023-12-04T10:12:00.215Z,18249,pYOxNKSFrZ,full,klassikaal_3,652fe10cdc68ac1c61cf9cec,participant,Mira,,,,22,v,,,,,,,,,,,,,,,,,,,
,prepare,html.Page,3_0,,,form submission,141179,18223,18233,18249,159428,159429,2023-12-04T10:14:21.416Z,159489,pYOxNKSFrZ,full,klassikaal_3,652fe10cdc68ac1c61cf9cec,participant,Mira,,,,,,,,,,,,,,,,,,,,,,,,
,try-out-image,html.Page,3_1,,,form submission,30755,159429,159437,159489,190244,190244,2023-12-04T10:14:52.229Z,190271,pYOxNKSFrZ,full,klassikaal_3,652fe10cdc68ac1c61cf9cec,participant,Mira,,,,,,,Eenden,,,,,,,,,,,,,,,,,
,answer,html.Page,3_2,,,form submission,8070,190244,190254,190271,198341,198342,2023-12-04T10:15:00.327Z,198371,pYOxNKSFrZ,full,klassikaal_3,652fe10cdc68ac1c61cf9cec,participant,Mira,,,,,,,,,,,,,,,,,,,,,,,,
,try-out,flow.Sequence,3,,,completion,180092,18223,18233,18249,198341,198342,2023-12-04T10:15:00.327Z,198371,pYOxNKSFrZ,full,klassikaal_3,652fe10cdc68ac1c61cf9cec,participant,Mira,,,,,,,,,,,,,,,,,,,,,,,,
,prepare,html.Page,4_0,,,form submission,25238,198342,198355,198371,223609,223609,2023-12-04T10:15:25.594Z,223666,pYOxNKSFrZ,full,klassikaal_3,652fe10cdc68ac1c61cf9cec,participant,Mira,,,,,,,,,,,,,,,,,,,,,,,,
,beach1-image,html.Page,4_1,,,form submission,16194,223609,223622,223666,239860,239860,2023-12-04T10:15:41.844Z,239889,pYOxNKSFrZ,full,klassikaal_3,652fe10cdc68ac1c61cf9cec,participant,Mira,,,,,,,,,vissen,,,,,,,,,,,,,,,
,answer,html.Page,4_2,,,form submission,8124,239860,239872,239889,248013,248013,2023-12-04T10:15:49.997Z,248039,pYOxNKSFrZ,full,klassikaal_3,652fe10cdc68ac1c61cf9cec,participant,Mira,,,,,,,,,,,,,,,,,,,,,,,,
,beach1,flow.Sequence,4,,,completion,49642,198342,198355,198371,248013,248013,2023-12-04T10:15:49.997Z,248039,pYOxNKSFrZ,full,klassikaal_3,652fe10cdc68ac1c61cf9cec,participant,Mira,,,,,,,,,,,,,,,,,,,,,,,,
,prepare,html.Page,5_0,,,form submission,34774,248013,248023,248039,282813,282814,2023-12-04T10:16:24.796Z,282840,pYOxNKSFrZ,full,klassikaal_3,652fe10cdc68ac1c61cf9cec,participant,Mira,,,,,,,,,,,,,,,,,,,,,,,,
,street1-image,html.Page,5_1,,,form submission,7642,282814,282824,282840,290482,290482,2023-12-04T10:16:32.464Z,290507,pYOxNKSFrZ,full,klassikaal_3,652fe10cdc68ac1c61cf9cec,participant,Mira,,,,,,,,,,,Luifel met witte en rode strepen,,,,,,,,,,,,,
,answer,html.Page,5_2,,,form submission,5240,290483,290491,290507,295747,295747,2023-12-04T10:16:37.729Z,295774,pYOxNKSFrZ,full,klassikaal_3,652fe10cdc68ac1c61cf9cec,participant,Mira,,,,,,,,,,,,,,,,,,,,,,,,
,street1,flow.Sequence,5,,,completion,47708,248013,248023,248039,295747,295747,2023-12-04T10:16:37.729Z,295774,pYOxNKSFrZ,full,klassikaal_3,652fe10cdc68ac1c61cf9cec,participant,Mira,,,,,,,,,,,,,,,,,,,,,,,,
,prepare,html.Page,6_0,,,form submission,32307,295747,295757,295774,328081,328082,2023-12-04T10:17:10.062Z,328168,pYOxNKSFrZ,full,klassikaal_3,652fe10cdc68ac1c61cf9cec,participant,Mira,,,,,,,,,,,,,,,,,,,,,,,,
,farm1-image,html.Page,6_1,,,form submission,4916,328082,328092,328168,333084,333085,2023-12-04T10:17:15.065Z,333108,pYOxNKSFrZ,full,klassikaal_3,652fe10cdc68ac1c61cf9cec,participant,Mira,,,,,,,,,,,,,Kettingzaag,,,,,,,,,,,
,answer,html.Page,6_2,,,form submission,5875,333085,333092,333108,338983,338983,2023-12-04T10:17:20.964Z,339009,pYOxNKSFrZ,full,klassikaal_3,652fe10cdc68ac1c61cf9cec,participant,Mira,,,,,,,,,,,,,,,,,,,,,,,,
,farm1,flow.Sequence,6,,,completion,43209,295747,295757,295774,338983,338983,2023-12-04T10:17:20.964Z,339009,pYOxNKSFrZ,full,klassikaal_3,652fe10cdc68ac1c61cf9cec,participant,Mira,,,,,,,,,,,,,,,,,,,,,,,,
,prepare,html.Page,7_0,,,form submission,43076,338983,338992,339009,382085,382085,2023-12-04T10:18:04.064Z,382112,pYOxNKSFrZ,full,klassikaal_3,652fe10cdc68ac1c61cf9cec,participant,Mira,,,,,,,,,,,,,,,,,,,,,,,,
,beach2-image,html.Page,7_1,,,form submission,10338,382085,382092,382112,392450,392450,2023-12-04T10:18:14.428Z,392477,pYOxNKSFrZ,full,klassikaal_3,652fe10cdc68ac1c61cf9cec,participant,Mira,,,,,,,,,,,,,,,twee mannen die de auto duwen,,,,,,,,,
,answer,html.Page,7_2,,,form submission,5674,392450,392460,392477,398151,398151,2023-12-04T10:18:20.129Z,398177,pYOxNKSFrZ,full,klassikaal_3,652fe10cdc68ac1c61cf9cec,participant,Mira,,,,,,,,,,,,,,,,,,,,,,,,
,beach2,flow.Sequence,7,,,completion,59142,338983,338992,339009,398151,398151,2023-12-04T10:18:20.129Z,398177,pYOxNKSFrZ,full,klassikaal_3,652fe10cdc68ac1c61cf9cec,participant,Mira,,,,,,,,,,,,,,,,,,,,,,,,
,prepare,html.Page,8_0,,,form submission,38392,398151,398160,398177,436569,436570,2023-12-04T10:18:58.546Z,436595,pYOxNKSFrZ,full,klassikaal_3,652fe10cdc68ac1c61cf9cec,participant,Mira,,,,,,,,,,,,,,,,,,,,,,,,
,street2-image,html.Page,8_1,,,form submission,5787,436570,436578,436595,442382,442383,2023-12-04T10:19:04.359Z,442412,pYOxNKSFrZ,full,klassikaal_3,652fe10cdc68ac1c61cf9cec,participant,Mira,,,,,,,,,,,,,,,,,rode strik van teddybeer,,,,,,,
,answer,html.Page,8_2,,,form submission,5305,442383,442395,442412,447717,447717,2023-12-04T10:19:09.694Z,447745,pYOxNKSFrZ,full,klassikaal_3,652fe10cdc68ac1c61cf9cec,participant,Mira,,,,,,,,,,,,,,,,,,,,,,,,
,street2,flow.Sequence,8,,,completion,49540,398151,398160,398177,447717,447717,2023-12-04T10:19:09.694Z,447745,pYOxNKSFrZ,full,klassikaal_3,652fe10cdc68ac1c61cf9cec,participant,Mira,,,,,,,,,,,,,,,,,,,,,,,,
,prepare,html.Page,9_0,,,form submission,50494.00000000006,447717,447728,447745,498239.00000000006,498239.00000000006,2023-12-04T10:20:00.214Z,498322,pYOxNKSFrZ,full,klassikaal_3,652fe10cdc68ac1c61cf9cec,participant,Mira,,,,,,,,,,,,,,,,,,,,,,,,
,farm2-image,html.Page,9_1,,,form submission,3312,498240,498246,498322,501634,501634,2023-12-04T10:20:03.609Z,501663,pYOxNKSFrZ,full,klassikaal_3,652fe10cdc68ac1c61cf9cec,participant,Mira,,,,,,,,,,,,,,,,,,,?,,,,,
,answer,html.Page,9_2,,,form submission,43173,501634,501647,501663,544836,544836,2023-12-04T10:20:46.809Z,544865,pYOxNKSFrZ,full,klassikaal_3,652fe10cdc68ac1c61cf9cec,participant,Mira,,,,,,,,,,,,,,,,,,,,,,,,
,farm2,flow.Sequence,9,,,completion,97091,447717,447728,447745,544836,544837,2023-12-04T10:20:46.810Z,544865,pYOxNKSFrZ,full,klassikaal_3,652fe10cdc68ac1c61cf9cec,participant,Mira,,,,,,,,,,,,,,,,,,,,,,,,
,prepare,html.Page,10_0,,,form submission,1490,544837,544848,544865,546355,546355,2023-12-04T10:20:48.328Z,546441,pYOxNKSFrZ,full,klassikaal_3,652fe10cdc68ac1c61cf9cec,participant,Mira,,,,,,,,,,,,,,,,,,,,,,,,
,park1-image,html.Page,10_1,,,form submission,7979,546355,546364,546441,554420,554420,2023-12-04T10:20:56.392Z,554448,pYOxNKSFrZ,full,klassikaal_3,652fe10cdc68ac1c61cf9cec,participant,Mira,,,,,,,,,,,,,,,,,,,,,kind op fiets met zijwieltjes,,,
,answer,html.Page,10_2,,,form submission,2690,554420,554432,554448,557138,557138,2023-12-04T10:20:59.111Z,557165,pYOxNKSFrZ,full,klassikaal_3,652fe10cdc68ac1c61cf9cec,participant,Mira,,,,,,,,,,,,,,,,,,,,,,,,
,park1,flow.Sequence,10,,,completion,12273,544837,544848,544865,557138,557138,2023-12-04T10:20:59.111Z,557165,pYOxNKSFrZ,full,klassikaal_3,652fe10cdc68ac1c61cf9cec,participant,Mira,,,,,,,,,,,,,,,,,,,,,,,,
,prepare,html.Page,11_0,,,form submission,50307,557138,557148,557165,607472,607472,2023-12-04T10:21:49.443Z,607593,pYOxNKSFrZ,full,klassikaal_3,652fe10cdc68ac1c61cf9cec,participant,Mira,,,,,,,,,,,,,,,,,,,,,,,,
,park2-image,html.Page,11_1,,,form submission,10945,607472,607483,607593,618538,618538,2023-12-04T10:22:00.508Z,618567,pYOxNKSFrZ,full,klassikaal_3,652fe10cdc68ac1c61cf9cec,participant,Mira,,,,,,,,,,,,,,,,,,,,,,,bloembak met witte bloemen,
,answer,html.Page,11_2,,,form submission,1372,618538,618550,618567,619939,619940,2023-12-04T10:22:01.910Z,619967,pYOxNKSFrZ,full,klassikaal_3,652fe10cdc68ac1c61cf9cec,participant,Mira,,,,,,,,,,,,,,,,,,,,,,,,
,park2,flow.Sequence,11,,,completion,62774,557138,557148,557165,619939,619940,2023-12-04T10:22:01.910Z,619967,pYOxNKSFrZ,full,klassikaal_3,652fe10cdc68ac1c61cf9cec,participant,Mira,,,,,,,,,,,,,,,,,,,,,,,,
,bedankt,html.Page,12,,,timeout,11550,619940,619949,619967,631501,631503,2023-12-04T10:22:13.473Z,631517,pYOxNKSFrZ,full,klassikaal_3,652fe10cdc68ac1c61cf9cec,participant,Mira,,,,,,,,,,,,,,,,,,,,,,,,
,root,flow.Sequence,,,,completion,629903,1549,1566,1598,631501,631504,2023-12-04T10:22:13.473Z,631517,pYOxNKSFrZ,full,klassikaal_3,652fe10cdc68ac1c61cf9cec,participant,Mira,,,,,,,,,,,,,,,,,,,,,,,,