meta,sender,sender_type,sender_id,Order,,ended_on,duration,time_run,time_render,time_show,time_end,time_commit,timestamp,time_switch,openLabId,type,task,project,status,code,confirmationCode,participant_L1,university_level,age,gender,gender_other,try-out_answer_L2,try-out_answer_L1,beach1_answer_L2,beach1_answer_L1,street1_answer_L2,street1_answer_L1,farm1_answer_L2,farm1_answer_L1,beach2_answer_L2,beach2_answer_L1,street2_answer_L2,street2_answer_L1,farm2_answer_L2,farm2_answer_L1,park1_answer_L2,park1_answer_L1,park2_answer_L2,park2_answer_L1
"{""labjs_version"":""20.2.4"",""labjs_build"":{""flavor"":""production"",""commit"":""f5b4a49f956347addd546a832a3327688c2c0fef""},""location"":""https://open-lab.online/test/klassikaal_3/656da60efa275e2b7bdef7ad"",""userAgent"":""Mozilla/5.0 (Macintosh; Intel Mac OS X 10_15_7) AppleWebKit/605.1.15 (KHTML, like Gecko) Version/17.0 Safari/605.1.15"",""platform"":""MacIntel"",""language"":""nl-NL"",""locale"":""nl-NL"",""timeZone"":""Europe/Brussels"",""timezoneOffset"":-60,""screen_width"":1440,""screen_height"":900,""scroll_width"":1440,""scroll_height"":772,""window_innerWidth"":1440,""window_innerHeight"":820,""devicePixelRatio"":2}",ID,html.Page,0,4,,form submission,3053,1767.0000000000002,1780,1799,4852,4852,2023-12-04T10:12:34.733Z,4863,BSBDvLgHlF,full,klassikaal_3,652fe10cdc68ac1c61cf9cec,participant,A,329196,,,,,,,,,,,,,,,,,,,,,,,
,language,html.Page,1,,,form submission,19337,4853,4857,4863,24200,24200,2023-12-04T10:12:54.081Z,24216,BSBDvLgHlF,full,klassikaal_3,652fe10cdc68ac1c61cf9cec,participant,A,,Engels,MA,,,,,,,,,,,,,,,,,,,,,
,age-gender,html.Page,2,,,form submission,7796.999999999996,24201,24206,24216,32012.999999999996,32012.999999999996,2023-12-04T10:13:01.893Z,32028,BSBDvLgHlF,full,klassikaal_3,652fe10cdc68ac1c61cf9cec,participant,A,,,,22,v,,,,,,,,,,,,,,,,,,,
,prepare,html.Page,3_0,,,form submission,71860,32012.999999999996,32015,32028,103888,103888,2023-12-04T10:14:13.765Z,103963,BSBDvLgHlF,full,klassikaal_3,652fe10cdc68ac1c61cf9cec,participant,A,,,,,,,,,,,,,,,,,,,,,,,,
,try-out-image,html.Page,3_1,,,form submission,28075,103888,103891,103963,132038,132039.00000000003,2023-12-04T10:14:41.915Z,132062,BSBDvLgHlF,full,klassikaal_3,652fe10cdc68ac1c61cf9cec,participant,A,,,,,,,de twee eenden,,,,,,,,,,,,,,,,,
,answer,html.Page,3_2,,,form submission,21988,132039.00000000003,132041,132062,154050,154050,2023-12-04T10:15:03.926Z,154063,BSBDvLgHlF,full,klassikaal_3,652fe10cdc68ac1c61cf9cec,participant,A,,,,,,,,,,,,,,,,,,,,,,,,
,try-out,flow.Sequence,3,,,completion,122022,32012.999999999996,32015,32028,154050,154050,2023-12-04T10:15:03.926Z,154063,BSBDvLgHlF,full,klassikaal_3,652fe10cdc68ac1c61cf9cec,participant,A,,,,,,,,,,,,,,,,,,,,,,,,
,prepare,html.Page,4_0,,,form submission,22403,154050,154052,154063,176466,176466,2023-12-04T10:15:26.341Z,176532,BSBDvLgHlF,full,klassikaal_3,652fe10cdc68ac1c61cf9cec,participant,A,,,,,,,,,,,,,,,,,,,,,,,,
,beach1-image,html.Page,4_1,,,form submission,36176,176466,176470,176532,212708,212709,2023-12-04T10:16:02.582Z,212724,BSBDvLgHlF,full,klassikaal_3,652fe10cdc68ac1c61cf9cec,participant,A,,,,,,,,,,,,,,,,,,,,,,,,
,answer,html.Page,4_2,,,form submission,3195,212709,212711,212724,215919,215920.00000000003,2023-12-04T10:16:05.793Z,215940,BSBDvLgHlF,full,klassikaal_3,652fe10cdc68ac1c61cf9cec,participant,A,,,,,,,,,,,,,,,,,,,,,,,,
,beach1,flow.Sequence,4,,,completion,61856,154050,154052,154063,215919,215920.00000000003,2023-12-04T10:16:05.793Z,215940,BSBDvLgHlF,full,klassikaal_3,652fe10cdc68ac1c61cf9cec,participant,A,,,,,,,,,,,,,,,,,,,,,,,,
,prepare,html.Page,5_0,,,form submission,15719,215920.00000000003,215922,215940,231659,231660,2023-12-04T10:16:21.533Z,231846,BSBDvLgHlF,full,klassikaal_3,652fe10cdc68ac1c61cf9cec,participant,A,,,,,,,,,,,,,,,,,,,,,,,,
,street1-image,html.Page,5_1,,,form submission,22300.00000000003,231660,231663,231846,254146.00000000003,254146.00000000003,2023-12-04T10:16:44.018Z,254164,BSBDvLgHlF,full,klassikaal_3,652fe10cdc68ac1c61cf9cec,participant,A,,,,,,,,,,,de luffel,,,,,,,,,,,,,
,answer,html.Page,5_2,,,form submission,5911,254146.00000000003,254148,254164,260075,260076.00000000003,2023-12-04T10:16:49.948Z,260093,BSBDvLgHlF,full,klassikaal_3,652fe10cdc68ac1c61cf9cec,participant,A,,,,,,,,,,,,,,,,,,,,,,,,
,street1,flow.Sequence,5,,,completion,44135,215920.00000000003,215922,215940,260075,260076.00000000003,2023-12-04T10:16:49.948Z,260093,BSBDvLgHlF,full,klassikaal_3,652fe10cdc68ac1c61cf9cec,participant,A,,,,,,,,,,,,,,,,,,,,,,,,
,prepare,html.Page,6_0,,,form submission,18962,260076.00000000003,260079,260093,279055,279055,2023-12-04T10:17:08.926Z,279148,BSBDvLgHlF,full,klassikaal_3,652fe10cdc68ac1c61cf9cec,participant,A,,,,,,,,,,,,,,,,,,,,,,,,
,farm1-image,html.Page,6_1,,,form submission,9425,279055,279059,279148,288573,288573,2023-12-04T10:17:18.444Z,288592,BSBDvLgHlF,full,klassikaal_3,652fe10cdc68ac1c61cf9cec,participant,A,,,,,,,,,,,,,kettingzaag,,,,,,,,,,,
,answer,html.Page,6_2,,,form submission,12027,288573,288575,288592,300619,300619,2023-12-04T10:17:30.490Z,300633,BSBDvLgHlF,full,klassikaal_3,652fe10cdc68ac1c61cf9cec,participant,A,,,,,,,,,,,,,,,,,,,,,,,,
,farm1,flow.Sequence,6,,,completion,40526,260076.00000000003,260079,260093,300619,300619,2023-12-04T10:17:30.490Z,300633,BSBDvLgHlF,full,klassikaal_3,652fe10cdc68ac1c61cf9cec,participant,A,,,,,,,,,,,,,,,,,,,,,,,,
,prepare,html.Page,7_0,,,form submission,30987,300619,300622,300633,331620,331620,2023-12-04T10:18:01.490Z,331712,BSBDvLgHlF,full,klassikaal_3,652fe10cdc68ac1c61cf9cec,participant,A,,,,,,,,,,,,,,,,,,,,,,,,
,beach2-image,html.Page,7_1,,,form submission,17703,331620,331624,331712,349415,349415,2023-12-04T10:18:19.284Z,349435,BSBDvLgHlF,full,klassikaal_3,652fe10cdc68ac1c61cf9cec,participant,A,,,,,,,,,,,,,,,de twee mannen die de auto proberen duwen,,,,,,,,,
,answer,html.Page,7_2,,,form submission,7600,349415,349417,349435,357035,357035,2023-12-04T10:18:26.904Z,357046,BSBDvLgHlF,full,klassikaal_3,652fe10cdc68ac1c61cf9cec,participant,A,,,,,,,,,,,,,,,,,,,,,,,,
,beach2,flow.Sequence,7,,,completion,56402,300619,300622,300633,357035,357036,2023-12-04T10:18:26.905Z,357046,BSBDvLgHlF,full,klassikaal_3,652fe10cdc68ac1c61cf9cec,participant,A,,,,,,,,,,,,,,,,,,,,,,,,
,prepare,html.Page,8_0,,,form submission,29644,357036,357038,357046,386690,386690,2023-12-04T10:18:56.558Z,386709,BSBDvLgHlF,full,klassikaal_3,652fe10cdc68ac1c61cf9cec,participant,A,,,,,,,,,,,,,,,,,,,,,,,,
,street2-image,html.Page,8_1,,,form submission,14595.000000000058,386690,386694,386709,401304.00000000006,401304.00000000006,2023-12-04T10:19:11.172Z,401316,BSBDvLgHlF,full,klassikaal_3,652fe10cdc68ac1c61cf9cec,participant,A,,,,,,,,,,,,,,,,,grote rode strik,,,,,,,
,answer,html.Page,8_2,,,form submission,4106,401304.00000000006,401307,401316,405422,405422,2023-12-04T10:19:15.290Z,405431,BSBDvLgHlF,full,klassikaal_3,652fe10cdc68ac1c61cf9cec,participant,A,,,,,,,,,,,,,,,,,,,,,,,,
,street2,flow.Sequence,8,,,completion,48376,357036,357038,357046,405422,405423,2023-12-04T10:19:15.290Z,405431,BSBDvLgHlF,full,klassikaal_3,652fe10cdc68ac1c61cf9cec,participant,A,,,,,,,,,,,,,,,,,,,,,,,,
,prepare,html.Page,9_0,,,form submission,43873.00000000006,405423,405425,405431,449304.00000000006,449304.00000000006,2023-12-04T10:19:59.170Z,449401,BSBDvLgHlF,full,klassikaal_3,652fe10cdc68ac1c61cf9cec,participant,A,,,,,,,,,,,,,,,,,,,,,,,,
,farm2-image,html.Page,9_1,,,form submission,23582,449304.00000000006,449308,449401,472983,472983,2023-12-04T10:20:22.848Z,473002,BSBDvLgHlF,full,klassikaal_3,652fe10cdc68ac1c61cf9cec,participant,A,,,,,,,,,,,,,,,,,,,hij wordt niet aangevallen,,,,,
,answer,html.Page,9_2,,,form submission,7745,472983,472985,473002,480747,480747,2023-12-04T10:20:30.612Z,480764,BSBDvLgHlF,full,klassikaal_3,652fe10cdc68ac1c61cf9cec,participant,A,,,,,,,,,,,,,,,,,,,,,,,,
,farm2,flow.Sequence,9,,,completion,75316,405423,405425,405431,480747,480747,2023-12-04T10:20:30.612Z,480764,BSBDvLgHlF,full,klassikaal_3,652fe10cdc68ac1c61cf9cec,participant,A,,,,,,,,,,,,,,,,,,,,,,,,
,prepare,html.Page,10_0,,,form submission,16058,480748,480750,480764,496822,496822,2023-12-04T10:20:46.687Z,496903,BSBDvLgHlF,full,klassikaal_3,652fe10cdc68ac1c61cf9cec,participant,A,,,,,,,,,,,,,,,,,,,,,,,,
,park1-image,html.Page,10_1,,,form submission,8194.000000000058,496823.00000000006,496826,496903,505097.00000000006,505097.00000000006,2023-12-04T10:20:54.961Z,505132,BSBDvLgHlF,full,klassikaal_3,652fe10cdc68ac1c61cf9cec,participant,A,,,,,,,,,,,,,,,,,,,,,geen kind,,,
,answer,html.Page,10_2,,,form submission,9454,505097.00000000006,505099,505132,514586,514586,2023-12-04T10:21:04.450Z,514591,BSBDvLgHlF,full,klassikaal_3,652fe10cdc68ac1c61cf9cec,participant,A,,,,,,,,,,,,,,,,,,,,,,,,
,park1,flow.Sequence,10,,,completion,33822,480748,480750,480764,514586,514586,2023-12-04T10:21:04.450Z,514591,BSBDvLgHlF,full,klassikaal_3,652fe10cdc68ac1c61cf9cec,participant,A,,,,,,,,,,,,,,,,,,,,,,,,
,prepare,html.Page,11_0,,,form submission,40527,514587,514589,514591,555118,555118,2023-12-04T10:21:44.980Z,555264,BSBDvLgHlF,full,klassikaal_3,652fe10cdc68ac1c61cf9cec,participant,A,,,,,,,,,,,,,,,,,,,,,,,,
,park2-image,html.Page,11_1,,,form submission,15878,555118,555121,555264,571142,571142,2023-12-04T10:22:01.004Z,571154,BSBDvLgHlF,full,klassikaal_3,652fe10cdc68ac1c61cf9cec,participant,A,,,,,,,,,,,,,,,,,,,,,,,bak met witte bloemen,
,answer,html.Page,11_2,,,form submission,15577,571142,571144,571154,586731,586731,2023-12-04T10:22:16.592Z,586743,BSBDvLgHlF,full,klassikaal_3,652fe10cdc68ac1c61cf9cec,participant,A,,,,,,,,,,,,,,,,,,,,,,,,
,park2,flow.Sequence,11,,,completion,72140,514587,514589,514591,586731,586731,2023-12-04T10:22:16.592Z,586743,BSBDvLgHlF,full,klassikaal_3,652fe10cdc68ac1c61cf9cec,participant,A,,,,,,,,,,,,,,,,,,,,,,,,
,bedankt,html.Page,12,,,timeout,2999,586731,586732,586743,589724,589725,2023-12-04T10:22:19.586Z,589742,BSBDvLgHlF,full,klassikaal_3,652fe10cdc68ac1c61cf9cec,participant,A,,,,,,,,,,,,,,,,,,,,,,,,
,root,flow.Sequence,,,,completion,587925,1767.0000000000002,1780,1799,589724,589725,2023-12-04T10:22:19.586Z,589742,BSBDvLgHlF,full,klassikaal_3,652fe10cdc68ac1c61cf9cec,participant,A,,,,,,,,,,,,,,,,,,,,,,,,