meta,sender,sender_type,sender_id,Order,,ended_on,duration,time_run,time_render,time_show,time_end,time_commit,timestamp,time_switch,openLabId,type,task,project,status,code,confirmationCode,participant_L1,university_level,age,gender,gender_other,try-out_answer_L2,try-out_answer_L1,beach1_answer_L2,beach1_answer_L1,street1_answer_L2,street1_answer_L1,farm1_answer_L2,farm1_answer_L1,beach2_answer_L2,beach2_answer_L1,street2_answer_L2,street2_answer_L1,farm2_answer_L2,farm2_answer_L1,park1_answer_L2,park1_answer_L1,park2_answer_L2,park2_answer_L1
"{""labjs_version"":""20.2.4"",""labjs_build"":{""flavor"":""production"",""commit"":""f5b4a49f956347addd546a832a3327688c2c0fef""},""location"":""https://open-lab.online/test/klassikaal_3/656da5e4fa275e2b7bdef759"",""userAgent"":""Mozilla/5.0 (Android 13; Mobile; rv:120.0) Gecko/120.0 Firefox/120.0"",""platform"":""Linux aarch64"",""language"":""en-US"",""locale"":""en-US"",""timeZone"":""Europe/Brussels"",""timezoneOffset"":-60,""screen_width"":1152,""screen_height"":720,""scroll_width"":980,""scroll_height"":584,""window_innerWidth"":980,""window_innerHeight"":528,""devicePixelRatio"":2.2222222222222223}",ID,html.Page,0,4,,form submission,6015.96,1848,1848.32,1859.04,7875,7880,2023-12-04T10:11:58.321Z,7875.58,TnLUY1CRin,full,klassikaal_3,652fe10cdc68ac1c61cf9cec,participant,DJQ,145284,,,,,,,,,,,,,,,,,,,,,,,
,language,html.Page,1,,,form submission,23474.42,7882,7849.6,7875.58,31350,31356,2023-12-04T10:12:21.798Z,31375.72,TnLUY1CRin,full,klassikaal_3,652fe10cdc68ac1c61cf9cec,participant,DJQ,,Chinees,MA,,,,,,,,,,,,,,,,,,,,,
,age-gender,html.Page,2,,,form submission,11649.279999999999,31357,31335.96,31375.72,43025,43026,2023-12-04T10:12:33.468Z,43025.74,TnLUY1CRin,full,klassikaal_3,652fe10cdc68ac1c61cf9cec,participant,DJQ,,,,23,m,,,,,,,,,,,,,,,,,,,
,prepare,html.Page,3_0,,,form submission,107954.26000000001,43027,43002.64,43025.74,150980,150986,2023-12-04T10:14:21.428Z,150992.44,TnLUY1CRin,full,klassikaal_3,652fe10cdc68ac1c61cf9cec,participant,DJQ,,,,,,,,,,,,,,,,,,,,,,,,
,try-out-image,html.Page,3_1,,,form submission,36890.56,150988,150954.08,150992.44,187883,187885,2023-12-04T10:14:58.326Z,187892.34,TnLUY1CRin,full,klassikaal_3,652fe10cdc68ac1c61cf9cec,participant,DJQ,,,,,,,de eenden,鸭子,,,,,,,,,,,,,,,,
,answer,html.Page,3_2,,,form submission,30690.660000000003,187886,187861.98,187892.34,218583,218584,2023-12-04T10:15:29.026Z,218592.32,TnLUY1CRin,full,klassikaal_3,652fe10cdc68ac1c61cf9cec,participant,DJQ,,,,,,,,,,,,,,,,,,,,,,,,
,try-out,flow.Sequence,3,,,completion,175557.26,43027,43002.64,43025.74,218583,218585,2023-12-04T10:15:29.027Z,218592.32,TnLUY1CRin,full,klassikaal_3,652fe10cdc68ac1c61cf9cec,participant,DJQ,,,,,,,,,,,,,,,,,,,,,,,,
,prepare,html.Page,4_0,,,form submission,1995.679999999993,218586,218575.66,218592.32,220588,220589,2023-12-04T10:15:31.030Z,220592.36,TnLUY1CRin,full,klassikaal_3,652fe10cdc68ac1c61cf9cec,participant,DJQ,,,,,,,,,,,,,,,,,,,,,,,,
,beach1-image,html.Page,4_1,,,form submission,32239.640000000014,220590,220571.82,220592.36,252832,252837,2023-12-04T10:16:03.278Z,252842.42,TnLUY1CRin,full,klassikaal_3,652fe10cdc68ac1c61cf9cec,participant,DJQ,,,,,,,,,visser,钓鱼,,,,,,,,,,,,,,
,answer,html.Page,4_2,,,form submission,1528.5799999999872,252839,252802,252842.42,254371,254373,2023-12-04T10:16:04.814Z,254375.74,TnLUY1CRin,full,klassikaal_3,652fe10cdc68ac1c61cf9cec,participant,DJQ,,,,,,,,,,,,,,,,,,,,,,,,
,beach1,flow.Sequence,4,,,completion,35778.67999999999,218585,218575.66,218592.32,254371,254376,2023-12-04T10:16:04.818Z,254375.74,TnLUY1CRin,full,klassikaal_3,652fe10cdc68ac1c61cf9cec,participant,DJQ,,,,,,,,,,,,,,,,,,,,,,,,
,prepare,html.Page,5_0,,,form submission,20403.26000000001,254379,254353.42,254375.74,274779,274781,2023-12-04T10:16:25.222Z,274775.72,TnLUY1CRin,full,klassikaal_3,652fe10cdc68ac1c61cf9cec,participant,DJQ,,,,,,,,,,,,,,,,,,,,,,,,
,street1-image,html.Page,5_1,,,form submission,22893.280000000028,274782,274761.76,274775.72,297669,297670,2023-12-04T10:16:48.111Z,297675.74,TnLUY1CRin,full,klassikaal_3,652fe10cdc68ac1c61cf9cec,participant,DJQ,,,,,,,,,,,,,,,,,,,,,,,,
,answer,html.Page,5_2,,,form submission,5788.260000000009,297670,297659.06,297675.74,303464,303465,2023-12-04T10:16:53.906Z,303475.7,TnLUY1CRin,full,klassikaal_3,652fe10cdc68ac1c61cf9cec,participant,DJQ,,,,,,,,,,,,,,,,,,,,,,,,
,street1,flow.Sequence,5,,,completion,49088.26000000001,254378,254353.42,254375.74,303464,303466,2023-12-04T10:16:53.907Z,303475.7,TnLUY1CRin,full,klassikaal_3,652fe10cdc68ac1c61cf9cec,participant,DJQ,,,,,,,,,,,,,,,,,,,,,,,,
,prepare,html.Page,6_0,,,form submission,15458.299999999988,303468,303459.02,303475.7,318934,318941,2023-12-04T10:17:09.383Z,318942.42,TnLUY1CRin,full,klassikaal_3,652fe10cdc68ac1c61cf9cec,participant,DJQ,,,,,,,,,,,,,,,,,,,,,,,,
,farm1-image,html.Page,6_1,,,form submission,25337.580000000016,318943,318897.48,318942.42,344280,344282,2023-12-04T10:17:34.723Z,344275.8,TnLUY1CRin,full,klassikaal_3,652fe10cdc68ac1c61cf9cec,participant,DJQ,,,,,,,,,,,,,de man zaagt de boom niet,,,,,,,,,,,
,answer,html.Page,6_2,,,form submission,5764.200000000012,344283,344259.44,344275.8,350040,350041,2023-12-04T10:17:40.482Z,350042.34,TnLUY1CRin,full,klassikaal_3,652fe10cdc68ac1c61cf9cec,participant,DJQ,,,,,,,,,,,,,,,,,,,,,,,,
,farm1,flow.Sequence,6,,,completion,46564.29999999999,303468,303459.02,303475.7,350040,350043,2023-12-04T10:17:40.485Z,350042.34,TnLUY1CRin,full,klassikaal_3,652fe10cdc68ac1c61cf9cec,participant,DJQ,,,,,,,,,,,,,,,,,,,,,,,,
,prepare,html.Page,7_0,,,form submission,25640.659999999974,350046,350020.98,350042.34,375683,375692,2023-12-04T10:18:06.134Z,375692.36,TnLUY1CRin,full,klassikaal_3,652fe10cdc68ac1c61cf9cec,participant,DJQ,,,,,,,,,,,,,,,,,,,,,,,,
,beach2-image,html.Page,7_1,,,form submission,22748.640000000014,375697,375647.1,375692.36,398441,398442,2023-12-04T10:18:28.882Z,398442.34,TnLUY1CRin,full,klassikaal_3,652fe10cdc68ac1c61cf9cec,participant,DJQ,,,,,,,,,,,,,,,2 mannen,,,,,,,,,
,answer,html.Page,7_2,,,form submission,5924.659999999974,398442,398419.46,398442.34,404367,404368,2023-12-04T10:18:34.809Z,404375.22,TnLUY1CRin,full,klassikaal_3,652fe10cdc68ac1c61cf9cec,participant,DJQ,,,,,,,,,,,,,,,,,,,,,,,,
,beach2,flow.Sequence,7,,,completion,54324.659999999974,350044,350020.98,350042.34,404367,404370,2023-12-04T10:18:34.811Z,404375.22,TnLUY1CRin,full,klassikaal_3,652fe10cdc68ac1c61cf9cec,participant,DJQ,,,,,,,,,,,,,,,,,,,,,,,,
,prepare,html.Page,8_0,,,form submission,23216.780000000028,404371,404358.62,404375.22,427592,427592,2023-12-04T10:18:58.034Z,427592.28,TnLUY1CRin,full,klassikaal_3,652fe10cdc68ac1c61cf9cec,participant,DJQ,,,,,,,,,,,,,,,,,,,,,,,,
,street2-image,html.Page,8_1,,,form submission,14698.719999999972,427593,427583.22,427592.28,442291,442292,2023-12-04T10:19:12.733Z,442292.36,TnLUY1CRin,full,klassikaal_3,652fe10cdc68ac1c61cf9cec,participant,DJQ,,,,,,,,,,,,,,,,,de beer heeft geen strik,,,,,,,
,answer,html.Page,8_2,,,form submission,19208.640000000014,442292,442270.14,442292.36,461501,461503,2023-12-04T10:19:31.944Z,461509,TnLUY1CRin,full,klassikaal_3,652fe10cdc68ac1c61cf9cec,participant,DJQ,,,,,,,,,,,,,,,,,,,,,,,,
,street2,flow.Sequence,8,,,completion,57125.78000000003,404371,404358.62,404375.22,461501,461504,2023-12-04T10:19:31.945Z,461509,TnLUY1CRin,full,klassikaal_3,652fe10cdc68ac1c61cf9cec,participant,DJQ,,,,,,,,,,,,,,,,,,,,,,,,
,prepare,html.Page,9_0,,,form submission,22913,461505,461479.54,461509,484422,484424,2023-12-04T10:19:54.865Z,484425.66,TnLUY1CRin,full,klassikaal_3,652fe10cdc68ac1c61cf9cec,participant,DJQ,,,,,,,,,,,,,,,,,,,,,,,,
,farm2-image,html.Page,9_1,,,form submission,15329.340000000026,484425,484404.6,484425.66,499755,499756,2023-12-04T10:20:10.197Z,499758.98,TnLUY1CRin,full,klassikaal_3,652fe10cdc68ac1c61cf9cec,participant,DJQ,,,,,,,,,,,,,,,,,,,de imker is kalm,,,,,
,answer,html.Page,9_2,,,form submission,16034.020000000019,499757,499736.6,499758.98,515793,515794,2023-12-04T10:20:26.236Z,515809.3,TnLUY1CRin,full,klassikaal_3,652fe10cdc68ac1c61cf9cec,participant,DJQ,,,,,,,,,,,,,,,,,,,,,,,,
,farm2,flow.Sequence,9,,,completion,54284,461505,461479.54,461509,515793,515795,2023-12-04T10:20:26.237Z,515809.3,TnLUY1CRin,full,klassikaal_3,652fe10cdc68ac1c61cf9cec,participant,DJQ,,,,,,,,,,,,,,,,,,,,,,,,
,prepare,html.Page,10_0,,,form submission,22377.70000000001,515796,515792.62,515809.3,538187,538197,2023-12-04T10:20:48.638Z,538192.3,TnLUY1CRin,full,klassikaal_3,652fe10cdc68ac1c61cf9cec,participant,DJQ,,,,,,,,,,,,,,,,,,,,,,,,
,park1-image,html.Page,10_1,,,form submission,17139.699999999953,538199,538154.6,538192.3,555332,555333,2023-12-04T10:21:05.774Z,555325.66,TnLUY1CRin,full,klassikaal_3,652fe10cdc68ac1c61cf9cec,participant,DJQ,,,,,,,,,,,,,,,,,,,,,"geen fietsen, geen kind",,,
,answer,html.Page,10_2,,,form submission,14647.339999999967,555334,555311.08,555325.66,569973,569974,2023-12-04T10:21:20.415Z,569992.32,TnLUY1CRin,full,klassikaal_3,652fe10cdc68ac1c61cf9cec,participant,DJQ,,,,,,,,,,,,,,,,,,,,,,,,
,park1,flow.Sequence,10,,,completion,54163.70000000001,515796,515792.62,515809.3,569973,569975,2023-12-04T10:21:20.416Z,569992.32,TnLUY1CRin,full,klassikaal_3,652fe10cdc68ac1c61cf9cec,participant,DJQ,,,,,,,,,,,,,,,,,,,,,,,,
,prepare,html.Page,11_0,,,form submission,33896.68000000005,569976,569975.64,569992.32,603889,603898,2023-12-04T10:21:54.339Z,603909.1,TnLUY1CRin,full,klassikaal_3,652fe10cdc68ac1c61cf9cec,participant,DJQ,,,,,,,,,,,,,,,,,,,,,,,,
,park2-image,html.Page,11_1,,,form submission,18967.900000000023,603900,603862.56,603909.1,622877,622878,2023-12-04T10:22:13.320Z,622892.36,TnLUY1CRin,full,klassikaal_3,652fe10cdc68ac1c61cf9cec,participant,DJQ,,,,,,,,,,,,,,,,,,,,,,,witte bloemen,白花
,answer,html.Page,11_2,,,form submission,15822.640000000014,622879,622860.68,622892.36,638715,638716,2023-12-04T10:22:29.158Z,638708.8,TnLUY1CRin,full,klassikaal_3,652fe10cdc68ac1c61cf9cec,participant,DJQ,,,,,,,,,,,,,,,,,,,,,,,,
,park2,flow.Sequence,11,,,completion,68722.68000000005,569976,569975.64,569992.32,638715,638717,2023-12-04T10:22:29.159Z,638708.8,TnLUY1CRin,full,klassikaal_3,652fe10cdc68ac1c61cf9cec,participant,DJQ,,,,,,,,,,,,,,,,,,,,,,,,
,bedankt,html.Page,12,,,timeout,3000.1999999999534,638718,638697.3,638708.8,641692.34,641696,2023-12-04T10:22:32.138Z,641709,TnLUY1CRin,full,klassikaal_3,652fe10cdc68ac1c61cf9cec,participant,DJQ,,,,,,,,,,,,,,,,,,,,,,,,
,root,flow.Sequence,,,,completion,639833.2999999999,1848,1848.32,1859.04,641692.34,641698,2023-12-04T10:22:32.140Z,641709,TnLUY1CRin,full,klassikaal_3,652fe10cdc68ac1c61cf9cec,participant,DJQ,,,,,,,,,,,,,,,,,,,,,,,,