meta,sender,sender_type,sender_id,Order,,ended_on,duration,time_run,time_render,time_show,time_end,time_commit,timestamp,time_switch,openLabId,type,task,project,status,code,confirmationCode,participant_L1,university_level,age,gender,gender_other,try-out_answer_L2,try-out_answer_L1,beach1_answer_L2,beach1_answer_L1,street1_answer_L2,street1_answer_L1,farm1_answer_L2,farm1_answer_L1,beach2_answer_L2,beach2_answer_L1,street2_answer_L2,street2_answer_L1,farm2_answer_L2,farm2_answer_L1,park1_answer_L2,park1_answer_L1,park2_answer_L2,park2_answer_L1
"{""labjs_version"":""20.2.4"",""labjs_build"":{""flavor"":""production"",""commit"":""f5b4a49f956347addd546a832a3327688c2c0fef""},""location"":""https://www.open-lab.online/test/klassikaal_3/656da5e2fa275e2b7bdef754"",""userAgent"":""Mozilla/5.0 (Windows NT 10.0; Win64; x64) AppleWebKit/537.36 (KHTML, like Gecko) Chrome/119.0.0.0 Safari/537.36 Edg/119.0.0.0"",""platform"":""Win32"",""language"":""nl"",""locale"":""nl-BE"",""timeZone"":""Europe/Brussels"",""timezoneOffset"":-60,""screen_width"":1280,""screen_height"":720,""scroll_width"":1272,""scroll_height"":598,""window_innerWidth"":1272,""window_innerHeight"":598,""devicePixelRatio"":1.5}",ID,html.Page,0,4,,form submission,3455.67,1659.9000000953674,1613.366,1663.33,5119,5120.700000047684,2023-12-04T10:12:00.344Z,5127.252,X9gPDhXrJN,full,klassikaal_3,652fe10cdc68ac1c61cf9cec,participant,D,535424,,,,,,,,,,,,,,,,,,,,,,,
,language,html.Page,1,,,form submission,13881.148000095367,5121.700000047684,5110.675,5127.252,19008.400000095367,19009,2023-12-04T10:12:14.232Z,19015.773,X9gPDhXrJN,full,klassikaal_3,652fe10cdc68ac1c61cf9cec,participant,D,,Nederlands,MA,,,,,,,,,,,,,,,,,,,,,
,age-gender,html.Page,2,,,form submission,5836.226999999999,19009.400000095367,18999.279,19015.773,24852,24852.60000014305,2023-12-04T10:12:20.075Z,24860.957,X9gPDhXrJN,full,klassikaal_3,652fe10cdc68ac1c61cf9cec,participant,D,,,,22,v,,,,,,,,,,,,,,,,,,,
,prepare,html.Page,3_0,,,form submission,116112.043,24852.900000095367,24844.635,24860.957,140973,140973.60000014305,2023-12-04T10:14:16.197Z,140982.138,X9gPDhXrJN,full,klassikaal_3,652fe10cdc68ac1c61cf9cec,participant,D,,,,,,,,,,,,,,,,,,,,,,,,
,try-out-image,html.Page,3_1,,,form submission,15987.562000047677,140973.90000009537,140965.689,140982.138,156969.70000004768,156970.40000009537,2023-12-04T10:14:32.193Z,157002.426,X9gPDhXrJN,full,klassikaal_3,652fe10cdc68ac1c61cf9cec,participant,D,,,,,,,de twee eenden,de twee eenden,,,,,,,,,,,,,,,,
,answer,html.Page,3_2,,,form submission,60506.47400009536,156970.70000004768,156985.624,157002.426,217508.90000009537,217509.5,2023-12-04T10:15:32.732Z,217519.214,X9gPDhXrJN,full,klassikaal_3,652fe10cdc68ac1c61cf9cec,participant,D,,,,,,,,,,,,,,,,,,,,,,,,
,try-out,flow.Sequence,3,,,completion,192647.94300009537,24852.800000190735,24844.635,24860.957,217508.90000009537,217514.5,2023-12-04T10:15:32.737Z,217519.214,X9gPDhXrJN,full,klassikaal_3,652fe10cdc68ac1c61cf9cec,participant,D,,,,,,,,,,,,,,,,,,,,,,,,
,prepare,html.Page,4_0,,,form submission,1733.2859999999928,217514.90000009537,217502.609,217519.214,219252.5,219253,2023-12-04T10:15:34.476Z,219267.678,X9gPDhXrJN,full,klassikaal_3,652fe10cdc68ac1c61cf9cec,participant,D,,,,,,,,,,,,,,,,,,,,,,,,
,beach1-image,html.Page,4_1,,,form submission,10203.02200004767,219253.30000019073,219251.466,219267.678,229470.70000004768,229471.5,2023-12-04T10:15:44.694Z,229476.019,X9gPDhXrJN,full,klassikaal_3,652fe10cdc68ac1c61cf9cec,participant,D,,,,,,,,,een vislijn,een vislijn,,,,,,,,,,,,,,
,answer,html.Page,4_2,,,form submission,36637.88100009537,229471.90000009537,229459.587,229476.019,266113.90000009537,266114.7000000477,2023-12-04T10:16:21.338Z,266129.464,X9gPDhXrJN,full,klassikaal_3,652fe10cdc68ac1c61cf9cec,participant,D,,,,,,,,,,,,,,,,,,,,,,,,
,beach1,flow.Sequence,4,,,completion,48594.68600009536,217514.80000019073,217502.609,217519.214,266113.90000009537,266115.2000000477,2023-12-04T10:16:21.338Z,266129.464,X9gPDhXrJN,full,klassikaal_3,652fe10cdc68ac1c61cf9cec,participant,D,,,,,,,,,,,,,,,,,,,,,,,,
,prepare,html.Page,5_0,,,form submission,3115.4360000953893,266115.60000014305,266112.956,266129.464,269244.90000009537,269245.5,2023-12-04T10:16:24.468Z,269259.909,X9gPDhXrJN,full,klassikaal_3,652fe10cdc68ac1c61cf9cec,participant,D,,,,,,,,,,,,,,,,,,,,,,,,
,street1-image,html.Page,5_1,,,form submission,13871.491000095382,269245.7000000477,269243.582,269259.909,283131.40000009537,283131.60000014305,2023-12-04T10:16:38.354Z,283148.918,X9gPDhXrJN,full,klassikaal_3,652fe10cdc68ac1c61cf9cec,participant,D,,,,,,,,,,,het afdak met witte en rode strepen,afdak met witte en rode strepen,,,,,,,,,,,,
,answer,html.Page,5_2,,,form submission,29615.28200004768,283131.60000014305,283131.814,283148.918,312764.2000000477,312764.7000000477,2023-12-04T10:17:07.988Z,312774.254,X9gPDhXrJN,full,klassikaal_3,652fe10cdc68ac1c61cf9cec,participant,D,,,,,,,,,,,,,,,,,,,,,,,,
,street1,flow.Sequence,5,,,completion,46634.736000047706,266115.5,266112.956,266129.464,312764.2000000477,312765.2000000477,2023-12-04T10:17:07.988Z,312774.254,X9gPDhXrJN,full,klassikaal_3,652fe10cdc68ac1c61cf9cec,participant,D,,,,,,,,,,,,,,,,,,,,,,,,
,prepare,html.Page,6_0,,,form submission,927.7459999999846,312765.5,312757.543,312774.254,313702,313702.40000009537,2023-12-04T10:17:08.925Z,313706.643,X9gPDhXrJN,full,klassikaal_3,652fe10cdc68ac1c61cf9cec,participant,D,,,,,,,,,,,,,,,,,,,,,,,,
,farm1-image,html.Page,6_1,,,form submission,9130.357000000018,313702.60000014305,313690.393,313706.643,322837,322837.60000014305,2023-12-04T10:17:18.061Z,322849.217,X9gPDhXrJN,full,klassikaal_3,652fe10cdc68ac1c61cf9cec,participant,D,,,,,,,,,,,,,kettingzaag,kettingzaag,,,,,,,,,,
,answer,html.Page,6_2,,,form submission,10144.782999999996,322838,322832.705,322849.217,332994,332994.40000009537,2023-12-04T10:17:28.217Z,333007.846,X9gPDhXrJN,full,klassikaal_3,652fe10cdc68ac1c61cf9cec,participant,D,,,,,,,,,,,,,,,,,,,,,,,,
,farm1,flow.Sequence,6,,,completion,20219.745999999985,312765.40000009537,312757.543,312774.254,332994,332994.80000019073,2023-12-04T10:17:28.218Z,333007.846,X9gPDhXrJN,full,klassikaal_3,652fe10cdc68ac1c61cf9cec,participant,D,,,,,,,,,,,,,,,,,,,,,,,,
,prepare,html.Page,7_0,,,form submission,33497.65399999998,332995.10000014305,332991.088,333007.846,366505.5,366506,2023-12-04T10:18:01.729Z,366513.354,X9gPDhXrJN,full,klassikaal_3,652fe10cdc68ac1c61cf9cec,participant,D,,,,,,,,,,,,,,,,,,,,,,,,
,beach2-image,html.Page,7_1,,,form submission,10015.846000047692,366506.30000019073,366496.627,366513.354,376529.2000000477,376529.80000019073,2023-12-04T10:18:11.753Z,376538.397,X9gPDhXrJN,full,klassikaal_3,652fe10cdc68ac1c61cf9cec,participant,D,,,,,,,,,,,,,,,twee mannen die duwen,twee mannen die duwen,,,,,,,,
,answer,html.Page,7_2,,,form submission,2580.3030000476865,376530.10000014305,376522.016,376538.397,379118.7000000477,379119.10000014305,2023-12-04T10:18:14.342Z,379152.948,X9gPDhXrJN,full,klassikaal_3,652fe10cdc68ac1c61cf9cec,participant,D,,,,,,,,,,,,,,,,,,,,,,,,
,beach2,flow.Sequence,7,,,completion,46110.854000047664,332995,332991.088,333007.846,379118.7000000477,379119.7000000477,2023-12-04T10:18:14.343Z,379152.948,X9gPDhXrJN,full,klassikaal_3,652fe10cdc68ac1c61cf9cec,participant,D,,,,,,,,,,,,,,,,,,,,,,,,
,prepare,html.Page,8_0,,,form submission,47338.85200019076,379120,379136.589,379152.948,426491.80000019073,426492.2000000477,2023-12-04T10:19:01.715Z,426497.239,X9gPDhXrJN,full,klassikaal_3,652fe10cdc68ac1c61cf9cec,participant,D,,,,,,,,,,,,,,,,,,,,,,,,
,street2-image,html.Page,8_1,,,form submission,8386.961000047682,426492.40000009537,426480.91,426497.239,434884.2000000477,434884.80000019073,2023-12-04T10:19:10.108Z,434890.406,X9gPDhXrJN,full,klassikaal_3,652fe10cdc68ac1c61cf9cec,participant,D,,,,,,,,,,,,,,,,,edelstenen,edelstenen,,,,,,
,answer,html.Page,8_2,,,form submission,1946.3940001907176,434885.2000000477,434873.702,434890.406,436836.80000019073,436837.2000000477,2023-12-04T10:19:12.060Z,436856.049,X9gPDhXrJN,full,klassikaal_3,652fe10cdc68ac1c61cf9cec,participant,D,,,,,,,,,,,,,,,,,,,,,,,,
,street2,flow.Sequence,8,,,completion,57683.85200019076,379120,379136.589,379152.948,436836.80000019073,436837.60000014305,2023-12-04T10:19:12.061Z,436856.049,X9gPDhXrJN,full,klassikaal_3,652fe10cdc68ac1c61cf9cec,participant,D,,,,,,,,,,,,,,,,,,,,,,,,
,prepare,html.Page,9_0,,,form submission,46713.85100009537,436837.80000019073,436822.507,436856.049,483569.90000009537,483570.40000009537,2023-12-04T10:19:58.793Z,483583.689,X9gPDhXrJN,full,klassikaal_3,652fe10cdc68ac1c61cf9cec,participant,D,,,,,,,,,,,,,,,,,,,,,,,,
,farm2-image,html.Page,9_1,,,form submission,10747.211000095354,483570.60000014305,483567.182,483583.689,494330.90000009537,494331.40000009537,2023-12-04T10:20:09.554Z,494341.463,X9gPDhXrJN,full,klassikaal_3,652fe10cdc68ac1c61cf9cec,participant,D,,,,,,,,,,,,,,,,,,,,,,,,
,answer,html.Page,9_2,,,form submission,14970.937000095379,494331.60000014305,494324.946,494341.463,509312.40000009537,509313,2023-12-04T10:20:24.536Z,509329.707,X9gPDhXrJN,full,klassikaal_3,652fe10cdc68ac1c61cf9cec,participant,D,,,,,,,,,,,,,,,,,,,,,,,,
,farm2,flow.Sequence,9,,,completion,72456.35100009537,436837.80000019073,436822.507,436856.049,509312.40000009537,509313.5,2023-12-04T10:20:24.536Z,509329.707,X9gPDhXrJN,full,klassikaal_3,652fe10cdc68ac1c61cf9cec,participant,D,,,,,,,,,,,,,,,,,,,,,,,,
,prepare,html.Page,10_0,,,form submission,20789.99300004769,509313.90000009537,509295.957,509329.707,530119.7000000477,530120.100000143,2023-12-04T10:20:45.343Z,530128.672,X9gPDhXrJN,full,klassikaal_3,652fe10cdc68ac1c61cf9cec,participant,D,,,,,,,,,,,,,,,,,,,,,,,,
,park1-image,html.Page,10_1,,,form submission,5855.728000095347,530120.3000001907,530112.142,530128.672,535984.4000000954,535984.9000000954,2023-12-04T10:20:51.208Z,535990.571,X9gPDhXrJN,full,klassikaal_3,652fe10cdc68ac1c61cf9cec,participant,D,,,,,,,,,,,,,,,,,,,,,fiets,fiets,,
,answer,html.Page,10_2,,,form submission,3619.529000143055,535985.3000001907,535974.273,535990.571,539610.100000143,539610.5,2023-12-04T10:20:54.833Z,539620.958,X9gPDhXrJN,full,klassikaal_3,652fe10cdc68ac1c61cf9cec,participant,D,,,,,,,,,,,,,,,,,,,,,,,,
,park1,flow.Sequence,10,,,completion,30280.393000143056,509313.90000009537,509295.957,509329.707,539610.100000143,539610.8000001907,2023-12-04T10:20:54.834Z,539620.958,X9gPDhXrJN,full,klassikaal_3,652fe10cdc68ac1c61cf9cec,participant,D,,,,,,,,,,,,,,,,,,,,,,,,
,prepare,html.Page,11_0,,,form submission,49450.44200009538,539611.100000143,539604.397,539620.958,589071.4000000954,589071.9000000954,2023-12-04T10:21:44.295Z,589080.177,X9gPDhXrJN,full,klassikaal_3,652fe10cdc68ac1c61cf9cec,participant,D,,,,,,,,,,,,,,,,,,,,,,,,
,park2-image,html.Page,11_1,,,form submission,18033.923000143026,589072.100000143,589063.848,589080.177,607114.100000143,607114.600000143,2023-12-04T10:22:02.338Z,607132.093,X9gPDhXrJN,full,klassikaal_3,652fe10cdc68ac1c61cf9cec,participant,D,,,,,,,,,,,,,,,,,,,,,,,andere bloembak met witte bloemen,andere bloembak met witte bloemen
,answer,html.Page,11_2,,,form submission,2018.4070000000065,607114.9000000954,607099.13,607132.093,609150.5,609150.9000000954,2023-12-04T10:22:04.374Z,609163.751,X9gPDhXrJN,full,klassikaal_3,652fe10cdc68ac1c61cf9cec,participant,D,,,,,,,,,,,,,,,,,,,,,,,,
,park2,flow.Sequence,11,,,completion,69529.54200000002,539611,539604.397,539620.958,609150.5,609151.4000000954,2023-12-04T10:22:04.374Z,609163.751,X9gPDhXrJN,full,klassikaal_3,652fe10cdc68ac1c61cf9cec,participant,D,,,,,,,,,,,,,,,,,,,,,,,,
,bedankt,html.Page,12,,,timeout,2997.512999999919,609151.600000143,609147.311,609163.751,612144.717,612146.9000000954,2023-12-04T10:22:07.370Z,612161.264,X9gPDhXrJN,full,klassikaal_3,652fe10cdc68ac1c61cf9cec,participant,D,,,,,,,,,,,,,,,,,,,,,,,,
,root,flow.Sequence,,,,completion,610481.387,1659.8000001907349,1613.366,1663.33,612144.717,612147.4000000954,2023-12-04T10:22:07.370Z,612161.264,X9gPDhXrJN,full,klassikaal_3,652fe10cdc68ac1c61cf9cec,participant,D,,,,,,,,,,,,,,,,,,,,,,,,