meta,sender,sender_type,sender_id,Order,,ended_on,duration,time_run,time_render,time_show,time_end,time_commit,timestamp,time_switch,openLabId,type,task,project,status,code,confirmationCode,participant_L1,university_level,age,gender,gender_other,try-out_answer_L2,try-out_answer_L1,beach1_answer_L2,beach1_answer_L1,street1_answer_L2,street1_answer_L1,farm1_answer_L2,farm1_answer_L1,beach2_answer_L2,beach2_answer_L1,street2_answer_L2,street2_answer_L1,farm2_answer_L2,farm2_answer_L1,park1_answer_L2,park1_answer_L1,park2_answer_L2,park2_answer_L1
"{""labjs_version"":""20.2.4"",""labjs_build"":{""flavor"":""production"",""commit"":""f5b4a49f956347addd546a832a3327688c2c0fef""},""location"":""https://open-lab.online/test/klassikaal_3/656da5eefa275e2b7bdef768"",""userAgent"":""Mozilla/5.0 (Windows NT 10.0; Win64; x64) AppleWebKit/537.36 (KHTML, like Gecko) Chrome/119.0.0.0 Safari/537.36"",""platform"":""Win32"",""language"":""nl-BE"",""locale"":""nl"",""timeZone"":""Europe/Brussels"",""timezoneOffset"":-60,""screen_width"":1536,""screen_height"":864,""scroll_width"":1536,""scroll_height"":699,""window_innerWidth"":1536,""window_innerHeight"":747,""devicePixelRatio"":1.25}",ID,html.Page,0,4,,form submission,5436.413999904633,4016.7999999523163,3844.05,4060.186,9496.599999904633,9497.699999809265,2023-12-04T10:12:06.287Z,9516.536,mzPO2mgYzD,full,klassikaal_3,652fe10cdc68ac1c61cf9cec,participant,Marco,813602,,,,,,,,,,,,,,,,,,,,,,,
,language,html.Page,1,,,form submission,31612.063999904633,9498.199999809265,9483.335,9516.536,41128.59999990463,41129.199999809265,2023-12-04T10:12:37.918Z,41156.933,mzPO2mgYzD,full,klassikaal_3,652fe10cdc68ac1c61cf9cec,participant,Marco,,"Nederlands, Italiaans, Engels",MA,,,,,,,,,,,,,,,,,,,,,
,age-gender,html.Page,2,,,form submission,7999.666999904635,41129.5,41123.537,41156.933,49156.59999990463,49157.299999952316,2023-12-04T10:12:45.946Z,49175.034,mzPO2mgYzD,full,klassikaal_3,652fe10cdc68ac1c61cf9cec,participant,Marco,,,,23,m,,,,,,,,,,,,,,,,,,,
,prepare,html.Page,3_0,,,form submission,87096.76599995232,49160.59999990463,49158.348,49175.034,136271.79999995232,136272.29999995232,2023-12-04T10:14:13.055Z,136476.764,mzPO2mgYzD,full,klassikaal_3,652fe10cdc68ac1c61cf9cec,participant,Marco,,,,,,,,,,,,,,,,,,,,,,,,
,try-out-image,html.Page,3_1,,,form submission,34877.33599990464,136272.5,136277.271,136476.764,171354.09999990463,171354.59999990463,2023-12-04T10:14:48.137Z,171360.903,mzPO2mgYzD,full,klassikaal_3,652fe10cdc68ac1c61cf9cec,participant,Marco,,,,,,,Eenden,eenden,,,,,,,,,,,,,,,,
,answer,html.Page,3_2,,,form submission,43841.19699990464,171354.79999995232,171344.79,171360.903,215202.09999990463,215202.5,2023-12-04T10:15:31.991Z,215228.134,mzPO2mgYzD,full,klassikaal_3,652fe10cdc68ac1c61cf9cec,participant,Marco,,,,,,,,,,,,,,,,,,,,,,,,
,try-out,flow.Sequence,3,,,completion,166027.06599990465,49160.39999985695,49158.348,49175.034,215202.09999990463,215210.79999995232,2023-12-04T10:15:31.999Z,215228.134,mzPO2mgYzD,full,klassikaal_3,652fe10cdc68ac1c61cf9cec,participant,Marco,,,,,,,,,,,,,,,,,,,,,,,,
,prepare,html.Page,4_0,,,form submission,1419.265999856958,215211.09999990463,215194.884,215228.134,216647.39999985695,216648,2023-12-04T10:15:33.436Z,216891.595,mzPO2mgYzD,full,klassikaal_3,652fe10cdc68ac1c61cf9cec,participant,Marco,,,,,,,,,,,,,,,,,,,,,,,,
,beach1-image,html.Page,4_1,,,form submission,12345.304999856948,216648.19999980927,216642.131,216891.595,229236.89999985695,229237.89999985695,2023-12-04T10:15:46.026Z,229251.96,mzPO2mgYzD,full,klassikaal_3,652fe10cdc68ac1c61cf9cec,participant,Marco,,,,,,,,,vishengel,vishengel,,,,,,,,,,,,,,
,answer,html.Page,4_2,,,form submission,15146.239999809273,229238.19999980927,229234.948,229251.96,244398.19999980927,244398.79999995232,2023-12-04T10:16:01.187Z,244439.526,mzPO2mgYzD,full,klassikaal_3,652fe10cdc68ac1c61cf9cec,participant,Marco,,,,,,,,,,,,,,,,,,,,,,,,
,beach1,flow.Sequence,4,,,completion,29170.065999809274,215211.09999990463,215194.884,215228.134,244398.19999980927,244399.09999990463,2023-12-04T10:16:01.188Z,244439.526,mzPO2mgYzD,full,klassikaal_3,652fe10cdc68ac1c61cf9cec,participant,Marco,,,,,,,,,,,,,,,,,,,,,,,,
,prepare,html.Page,5_0,,,form submission,18539.673999809253,244399.39999985695,244389.89,244439.526,262979.19999980927,262979.69999980927,2023-12-04T10:16:19.768Z,263303.921,mzPO2mgYzD,full,klassikaal_3,652fe10cdc68ac1c61cf9cec,participant,Marco,,,,,,,,,,,,,,,,,,,,,,,,
,street1-image,html.Page,5_1,,,form submission,15240.278999809292,262979.89999985695,262971.592,263303.921,278544.19999980927,278544.69999980927,2023-12-04T10:16:35.332Z,278558.746,mzPO2mgYzD,full,klassikaal_3,652fe10cdc68ac1c61cf9cec,participant,Marco,,,,,,,,,,,de luifel,de luifel,,,,,,,,,,,,
,answer,html.Page,5_2,,,form submission,16579.45399980928,278544.7999999523,278542.565,278558.746,295138.19999980927,295138.69999980927,2023-12-04T10:16:51.926Z,295193.714,mzPO2mgYzD,full,klassikaal_3,652fe10cdc68ac1c61cf9cec,participant,Marco,,,,,,,,,,,,,,,,,,,,,,,,
,street1,flow.Sequence,5,,,completion,50698.67399980925,244399.29999995232,244389.89,244439.526,295138.19999980927,295139.09999990463,2023-12-04T10:16:51.927Z,295193.714,mzPO2mgYzD,full,klassikaal_3,652fe10cdc68ac1c61cf9cec,participant,Marco,,,,,,,,,,,,,,,,,,,,,,,,
,prepare,html.Page,6_0,,,form submission,15022.286000000022,295139.2999999523,295162.027,295193.714,310216,310217,2023-12-04T10:17:07.005Z,310448.222,mzPO2mgYzD,full,klassikaal_3,652fe10cdc68ac1c61cf9cec,participant,Marco,,,,,,,,,,,,,,,,,,,,,,,,
,farm1-image,html.Page,6_1,,,form submission,20144.477999809256,310217.2999999523,310198.926,310448.222,330592.69999980927,330593.09999990463,2023-12-04T10:17:27.381Z,330626.841,mzPO2mgYzD,full,klassikaal_3,652fe10cdc68ac1c61cf9cec,participant,Marco,,,,,,,,,,,,,de kettingzaag,de kettingzaag,,,,,,,,,,
,answer,html.Page,6_2,,,form submission,10901.658999999985,330593.2999999523,330576.917,330626.841,341528.5,341528.7999999523,2023-12-04T10:17:38.312Z,341556.17,mzPO2mgYzD,full,klassikaal_3,652fe10cdc68ac1c61cf9cec,participant,Marco,,,,,,,,,,,,,,,,,,,,,,,,
,farm1,flow.Sequence,6,,,completion,46334.78600000002,295139.19999980927,295162.027,295193.714,341528.5,341529.09999990463,2023-12-04T10:17:38.312Z,341556.17,mzPO2mgYzD,full,klassikaal_3,652fe10cdc68ac1c61cf9cec,participant,Marco,,,,,,,,,,,,,,,,,,,,,,,,
,prepare,html.Page,7_0,,,form submission,20008.92999990465,341529.2999999523,341523.174,341556.17,361565.09999990463,361565.5,2023-12-04T10:17:58.348Z,361834.59,mzPO2mgYzD,full,klassikaal_3,652fe10cdc68ac1c61cf9cec,participant,Marco,,,,,,,,,,,,,,,,,,,,,,,,
,beach2-image,html.Page,7_1,,,form submission,30887.409999999974,361565.59999990463,361552.011,361834.59,392722,392722.69999980927,2023-12-04T10:18:29.506Z,392744.873,mzPO2mgYzD,full,klassikaal_3,652fe10cdc68ac1c61cf9cec,participant,Marco,,,,,,,,,,,,,,,de twee mannen die de auto duwen,de twee mannen die de auto duwen,,,,,,,,
,answer,html.Page,7_2,,,form submission,1916.7269999046111,392723,392726.198,392744.873,394661.59999990463,394662,2023-12-04T10:18:31.445Z,394689.194,mzPO2mgYzD,full,klassikaal_3,652fe10cdc68ac1c61cf9cec,participant,Marco,,,,,,,,,,,,,,,,,,,,,,,,
,beach2,flow.Sequence,7,,,completion,53105.42999990465,341529.2999999523,341523.174,341556.17,394661.59999990463,394662.5,2023-12-04T10:18:31.445Z,394689.194,mzPO2mgYzD,full,klassikaal_3,652fe10cdc68ac1c61cf9cec,participant,Marco,,,,,,,,,,,,,,,,,,,,,,,,
,prepare,html.Page,8_0,,,form submission,23333.805999999982,394662.59999990463,394656.027,394689.194,418023,418023.5,2023-12-04T10:18:54.814Z,418294.598,mzPO2mgYzD,full,klassikaal_3,652fe10cdc68ac1c61cf9cec,participant,Marco,,,,,,,,,,,,,,,,,,,,,,,,
,street2-image,html.Page,8_1,,,form submission,20710.601999809267,418023.59999990463,418012.107,418294.598,439005.19999980927,439006.09999990463,2023-12-04T10:19:15.796Z,439022.559,mzPO2mgYzD,full,klassikaal_3,652fe10cdc68ac1c61cf9cec,participant,Marco,,,,,,,,,,,,,,,,,de grote rode strik,de grote rode strik,,,,,,
,answer,html.Page,8_2,,,form submission,3924.3409998569405,439006.69999980927,439005.555,439022.559,442946.89999985695,442947.2999999523,2023-12-04T10:19:19.738Z,442981.357,mzPO2mgYzD,full,klassikaal_3,652fe10cdc68ac1c61cf9cec,participant,Marco,,,,,,,,,,,,,,,,,,,,,,,,
,street2,flow.Sequence,8,,,completion,48257.70599985693,394662.59999990463,394656.027,394689.194,442946.89999985695,442947.59999990463,2023-12-04T10:19:19.738Z,442981.357,mzPO2mgYzD,full,klassikaal_3,652fe10cdc68ac1c61cf9cec,participant,Marco,,,,,,,,,,,,,,,,,,,,,,,,
,prepare,html.Page,9_0,,,form submission,32360.442999952298,442947.69999980927,442931.625,442981.357,475341.7999999523,475342.19999980927,2023-12-04T10:19:52.133Z,475586.397,mzPO2mgYzD,full,klassikaal_3,652fe10cdc68ac1c61cf9cec,participant,Marco,,,,,,,,,,,,,,,,,,,,,,,,
,farm2-image,html.Page,9_1,,,form submission,30629.00299985695,475342.2999999523,475337.153,475586.397,506215.39999985695,506215.89999985695,2023-12-04T10:20:23.006Z,506245.21,mzPO2mgYzD,full,klassikaal_3,652fe10cdc68ac1c61cf9cec,participant,Marco,,,,,,,,,,,,,,,,,,,Hij is niet in paniek,Hij is niet in paniek,,,,
,answer,html.Page,9_2,,,form submission,1033.4899998092442,506216.09999990463,506211.909,506245.21,507278.69999980927,507279.09999990463,2023-12-04T10:20:24.069Z,507297.111,mzPO2mgYzD,full,klassikaal_3,652fe10cdc68ac1c61cf9cec,participant,Marco,,,,,,,,,,,,,,,,,,,,,,,,
,farm2,flow.Sequence,9,,,completion,64297.34299980925,442947.59999990463,442931.625,442981.357,507278.69999980927,507279.2999999523,2023-12-04T10:20:24.069Z,507297.111,mzPO2mgYzD,full,klassikaal_3,652fe10cdc68ac1c61cf9cec,participant,Marco,,,,,,,,,,,,,,,,,,,,,,,,
,prepare,html.Page,10_0,,,form submission,23046.988999904657,507279.5,507260.091,507297.111,530344.0999999046,530344.399999857,2023-12-04T10:20:47.134Z,530599.906,mzPO2mgYzD,full,klassikaal_3,652fe10cdc68ac1c61cf9cec,participant,Marco,,,,,,,,,,,,,,,,,,,,,,,,
,park1-image,html.Page,10_1,,,form submission,22149.893999952357,530344.5999999046,530333.045,530599.906,552749.7999999523,552750.399999857,2023-12-04T10:21:09.538Z,552757.365,mzPO2mgYzD,full,klassikaal_3,652fe10cdc68ac1c61cf9cec,participant,Marco,,,,,,,,,,,,,,,,,,,,,geen kind op de fiets met zijwieltjes,geen kind op de fiets met zijwieltjes,,
,answer,html.Page,10_2,,,form submission,2684.8349998092744,552750.5999999046,552740.728,552757.365,555442.1999998093,555442.5,2023-12-04T10:21:12.230Z,555468.89,mzPO2mgYzD,full,klassikaal_3,652fe10cdc68ac1c61cf9cec,participant,Marco,,,,,,,,,,,,,,,,,,,,,,,,
,park1,flow.Sequence,10,,,completion,48145.08899980929,507279.39999985695,507260.091,507297.111,555442.1999998093,555442.7999999523,2023-12-04T10:21:12.231Z,555468.89,mzPO2mgYzD,full,klassikaal_3,652fe10cdc68ac1c61cf9cec,participant,Marco,,,,,,,,,,,,,,,,,,,,,,,,
,prepare,html.Page,11_0,,,form submission,30456.30999980925,555442.899999857,555435.879,555468.89,585925.1999998093,585925.5,2023-12-04T10:21:42.713Z,586544.02,mzPO2mgYzD,full,klassikaal_3,652fe10cdc68ac1c61cf9cec,participant,Marco,,,,,,,,,,,,,,,,,,,,,,,,
,park2-image,html.Page,11_1,,,form submission,9908.779999952298,585925.6999998093,585911.451,586544.02,596452.7999999523,596453.5,2023-12-04T10:21:53.241Z,596508.054,mzPO2mgYzD,full,klassikaal_3,652fe10cdc68ac1c61cf9cec,participant,Marco,,,,,,,,,,,,,,,,,,,,,,,de witte bloemen,de witte bloemen
,answer,html.Page,11_2,,,form submission,11209.045999904629,596456.7999999523,596442.018,596508.054,607717.0999999046,607717.399999857,2023-12-04T10:22:04.500Z,607753.499,mzPO2mgYzD,full,klassikaal_3,652fe10cdc68ac1c61cf9cec,participant,Marco,,,,,,,,,,,,,,,,,,,,,,,,
,park2,flow.Sequence,11,,,completion,52248.20999990462,555442.899999857,555435.879,555468.89,607717.0999999046,607717.899999857,2023-12-04T10:22:04.501Z,607753.499,mzPO2mgYzD,full,klassikaal_3,652fe10cdc68ac1c61cf9cec,participant,Marco,,,,,,,,,,,,,,,,,,,,,,,,
,bedankt,html.Page,12,,,timeout,2994.3330000001006,607718,607703.619,607753.499,610731.165,610732.6999998093,2023-12-04T10:22:07.515Z,610747.832,mzPO2mgYzD,full,klassikaal_3,652fe10cdc68ac1c61cf9cec,participant,Marco,,,,,,,,,,,,,,,,,,,,,,,,
,root,flow.Sequence,,,,completion,606670.979,4016.5,3844.05,4060.186,610731.165,610733.2999999523,2023-12-04T10:22:07.516Z,610747.832,mzPO2mgYzD,full,klassikaal_3,652fe10cdc68ac1c61cf9cec,participant,Marco,,,,,,,,,,,,,,,,,,,,,,,,