meta,sender,sender_type,sender_id,Order,,ended_on,duration,time_run,time_render,time_show,time_end,time_commit,timestamp,time_switch,openLabId,type,task,project,status,code,confirmationCode,participant_L1,university_level,age,gender,gender_other,try-out_answer_L2,try-out_answer_L1,beach1_answer_L2,beach1_answer_L1,street1_answer_L2,street1_answer_L1,farm1_answer_L2,farm1_answer_L1,beach2_answer_L2,beach2_answer_L1,street2_answer_L2,street2_answer_L1,farm2_answer_L2,farm2_answer_L1,park1_answer_L2,park1_answer_L1,park2_answer_L2,park2_answer_L1
"{""labjs_version"":""20.2.4"",""labjs_build"":{""flavor"":""production"",""commit"":""f5b4a49f956347addd546a832a3327688c2c0fef""},""location"":""https://open-lab.online/test/klassikaal_3/656da5f4fa275e2b7bdef781"",""userAgent"":""Mozilla/5.0 (Windows NT 10.0; Win64; x64; rv:120.0) Gecko/20100101 Firefox/120.0"",""platform"":""Win32"",""language"":""nl"",""locale"":""nl-BE"",""timeZone"":""Europe/Brussels"",""timezoneOffset"":-60,""screen_width"":1536,""screen_height"":864,""scroll_width"":1536,""scroll_height"":691,""window_innerWidth"":1536,""window_innerHeight"":739,""devicePixelRatio"":1.25}",ID,html.Page,0,4,,form submission,5654.64,5011,5010.78,5012.36,10667,10669,2023-12-04T10:12:15.046Z,10662.66,S7fEkl4y2H,full,klassikaal_3,652fe10cdc68ac1c61cf9cec,participant,Amber,958433,,,,,,,,,,,,,,,,,,,,,,,
,language,html.Page,1,,,form submission,17403.34,10669,10659.14,10662.66,28066,28066,2023-12-04T10:12:32.444Z,28063.7,S7fEkl4y2H,full,klassikaal_3,652fe10cdc68ac1c61cf9cec,participant,Amber,,Nederlands,MA,,,,,,,,,,,,,,,,,,,,,
,age-gender,html.Page,2,,,form submission,9627.3,28066,28062.38,28063.7,37691,37691,2023-12-04T10:12:42.069Z,37697.6,S7fEkl4y2H,full,klassikaal_3,652fe10cdc68ac1c61cf9cec,participant,Amber,,,,20,v,,,,,,,,,,,,,,,,,,,
,prepare,html.Page,3_0,,,form submission,97413.4,37692,37689.3,37697.6,135111,135113,2023-12-04T10:14:19.491Z,135119.54,S7fEkl4y2H,full,klassikaal_3,652fe10cdc68ac1c61cf9cec,participant,Amber,,,,,,,,,,,,,,,,,,,,,,,,
,try-out-image,html.Page,3_1,,,form submission,15073.459999999992,135114,135107.86,135119.54,150193,150194,2023-12-04T10:14:34.571Z,150203.76,S7fEkl4y2H,full,klassikaal_3,652fe10cdc68ac1c61cf9cec,participant,Amber,,,,,,,twee eenden in de vijver,,,,,,,,,,,,,,,,,
,answer,html.Page,3_2,,,form submission,31777.23999999999,150194,150190.38,150203.76,181981,181981,2023-12-04T10:15:06.359Z,181988.82,S7fEkl4y2H,full,klassikaal_3,652fe10cdc68ac1c61cf9cec,participant,Amber,,,,,,,,,,,,,,,,,,,,,,,,
,try-out,flow.Sequence,3,,,completion,144283.4,37691,37689.3,37697.6,181981,181982,2023-12-04T10:15:06.360Z,181988.82,S7fEkl4y2H,full,klassikaal_3,652fe10cdc68ac1c61cf9cec,participant,Amber,,,,,,,,,,,,,,,,,,,,,,,,
,prepare,html.Page,4_0,,,form submission,175.17999999999302,181982,181979.14,181988.82,182164,182164,2023-12-04T10:15:06.543Z,182172.16,S7fEkl4y2H,full,klassikaal_3,652fe10cdc68ac1c61cf9cec,participant,Amber,,,,,,,,,,,,,,,,,,,,,,,,
,beach1-image,html.Page,4_1,,,form submission,60008.84,182164,182162.16,182172.16,242181,242182,2023-12-04T10:16:06.560Z,242192.26,S7fEkl4y2H,full,klassikaal_3,652fe10cdc68ac1c61cf9cec,participant,Amber,,,,,,,,,,,,,,,,,,,,,,,,
,answer,html.Page,4_2,,,form submission,1817.7399999999907,242182,242180.14,242192.26,244010,244010,2023-12-04T10:16:08.388Z,244025.62,S7fEkl4y2H,full,klassikaal_3,652fe10cdc68ac1c61cf9cec,participant,Amber,,,,,,,,,,,,,,,,,,,,,,,,
,beach1,flow.Sequence,4,,,completion,62021.17999999999,181982,181979.14,181988.82,244010,244011,2023-12-04T10:16:08.389Z,244025.62,S7fEkl4y2H,full,klassikaal_3,652fe10cdc68ac1c61cf9cec,participant,Amber,,,,,,,,,,,,,,,,,,,,,,,,
,prepare,html.Page,5_0,,,form submission,13812.380000000005,244011,244008.32,244025.62,257838,257838,2023-12-04T10:16:22.216Z,257843.06,S7fEkl4y2H,full,klassikaal_3,652fe10cdc68ac1c61cf9cec,participant,Amber,,,,,,,,,,,,,,,,,,,,,,,,
,street1-image,html.Page,5_1,,,form submission,13160.940000000002,257838,257836.54,257843.06,271004,271004,2023-12-04T10:16:35.382Z,271010.5,S7fEkl4y2H,full,klassikaal_3,652fe10cdc68ac1c61cf9cec,participant,Amber,,,,,,,,,,,luifel met witte en rode strepen,,,,,,,,,,,,,
,answer,html.Page,5_2,,,form submission,16764.5,271005,271002.76,271010.5,287775,287775,2023-12-04T10:16:52.154Z,287778.08,S7fEkl4y2H,full,klassikaal_3,652fe10cdc68ac1c61cf9cec,participant,Amber,,,,,,,,,,,,,,,,,,,,,,,,
,street1,flow.Sequence,5,,,completion,43749.380000000005,244011,244008.32,244025.62,287775,287776,2023-12-04T10:16:52.155Z,287778.08,S7fEkl4y2H,full,klassikaal_3,652fe10cdc68ac1c61cf9cec,participant,Amber,,,,,,,,,,,,,,,,,,,,,,,,
,prepare,html.Page,6_0,,,form submission,15548.919999999984,287776,287774.32,287778.08,303327,303328,2023-12-04T10:17:07.706Z,303328.92,S7fEkl4y2H,full,klassikaal_3,652fe10cdc68ac1c61cf9cec,participant,Amber,,,,,,,,,,,,,,,,,,,,,,,,
,farm1-image,html.Page,6_1,,,form submission,15280.080000000016,303328,303326.52,303328.92,318609,318611,2023-12-04T10:17:22.989Z,318613.08,S7fEkl4y2H,full,klassikaal_3,652fe10cdc68ac1c61cf9cec,participant,Amber,,,,,,,,,,,,,kettingzaag,,,,,,,,,,,
,answer,html.Page,6_2,,,form submission,16295.919999999984,318611,318606.04,318613.08,334909,334909,2023-12-04T10:17:39.287Z,334914,S7fEkl4y2H,full,klassikaal_3,652fe10cdc68ac1c61cf9cec,participant,Amber,,,,,,,,,,,,,,,,,,,,,,,,
,farm1,flow.Sequence,6,,,completion,47130.919999999984,287776,287774.32,287778.08,334909,334910,2023-12-04T10:17:39.288Z,334914,S7fEkl4y2H,full,klassikaal_3,652fe10cdc68ac1c61cf9cec,participant,Amber,,,,,,,,,,,,,,,,,,,,,,,,
,prepare,html.Page,7_0,,,form submission,1278,334910,334907.12,334914,336192,336192,2023-12-04T10:17:40.571Z,336197.34,S7fEkl4y2H,full,klassikaal_3,652fe10cdc68ac1c61cf9cec,participant,Amber,,,,,,,,,,,,,,,,,,,,,,,,
,beach2-image,html.Page,7_1,,,form submission,34648.659999999974,336192,336190.52,336197.34,370846,370848,2023-12-04T10:18:15.226Z,370849.28,S7fEkl4y2H,full,klassikaal_3,652fe10cdc68ac1c61cf9cec,participant,Amber,,,,,,,,,,,,,,,,,,,,,,,,
,answer,html.Page,7_2,,,form submission,42768.71999999997,370849,370842.26,370849.28,413618,413618,2023-12-04T10:18:57.996Z,413618.32,S7fEkl4y2H,full,klassikaal_3,652fe10cdc68ac1c61cf9cec,participant,Amber,,,,,,,,,,,,,,,,,,,,,,,,
,beach2,flow.Sequence,7,,,completion,78704,334910,334907.12,334914,413618,413618,2023-12-04T10:18:57.996Z,413618.32,S7fEkl4y2H,full,klassikaal_3,652fe10cdc68ac1c61cf9cec,participant,Amber,,,,,,,,,,,,,,,,,,,,,,,,
,prepare,html.Page,8_0,,,form submission,1719.679999999993,413619,413616.04,413618.32,415338,415338,2023-12-04T10:18:59.716Z,415351.72,S7fEkl4y2H,full,klassikaal_3,652fe10cdc68ac1c61cf9cec,participant,Amber,,,,,,,,,,,,,,,,,,,,,,,,
,street2-image,html.Page,8_1,,,form submission,10499.280000000028,415338,415336,415351.72,425851,425851,2023-12-04T10:19:10.230Z,425852.34,S7fEkl4y2H,full,klassikaal_3,652fe10cdc68ac1c61cf9cec,participant,Amber,,,,,,,,,,,,,,,,,groene strik,,,,,,,
,answer,html.Page,8_2,,,form submission,3665.6599999999744,425851,425849.62,425852.34,429518,429518,2023-12-04T10:19:13.896Z,429519.18,S7fEkl4y2H,full,klassikaal_3,652fe10cdc68ac1c61cf9cec,participant,Amber,,,,,,,,,,,,,,,,,,,,,,,,
,street2,flow.Sequence,8,,,completion,15899.679999999993,413619,413616.04,413618.32,429518,429518,2023-12-04T10:19:13.896Z,429519.18,S7fEkl4y2H,full,klassikaal_3,652fe10cdc68ac1c61cf9cec,participant,Amber,,,,,,,,,,,,,,,,,,,,,,,,
,prepare,html.Page,9_0,,,form submission,42188.82000000001,429519,429516.2,429519.18,471708,471709,2023-12-04T10:19:56.087Z,471721.5,S7fEkl4y2H,full,klassikaal_3,652fe10cdc68ac1c61cf9cec,participant,Amber,,,,,,,,,,,,,,,,,,,,,,,,
,farm2-image,html.Page,9_1,,,form submission,22924.5,471709,471707.26,471721.5,494646,494648,2023-12-04T10:20:19.026Z,494656.24,S7fEkl4y2H,full,klassikaal_3,652fe10cdc68ac1c61cf9cec,participant,Amber,,,,,,,,,,,,,,,,,,,honing uithalen,,,,,
,answer,html.Page,9_2,,,form submission,9737.76000000001,494649,494642.92,494656.24,504394,504395,2023-12-04T10:20:28.773Z,504406.68,S7fEkl4y2H,full,klassikaal_3,652fe10cdc68ac1c61cf9cec,participant,Amber,,,,,,,,,,,,,,,,,,,,,,,,
,farm2,flow.Sequence,9,,,completion,74874.82,429519,429516.2,429519.18,504394,504395,2023-12-04T10:20:28.774Z,504406.68,S7fEkl4y2H,full,klassikaal_3,652fe10cdc68ac1c61cf9cec,participant,Amber,,,,,,,,,,,,,,,,,,,,,,,,
,prepare,html.Page,10_0,,,form submission,16357.320000000007,504395,504392.86,504406.68,520764,520765,2023-12-04T10:20:45.143Z,520774.38,S7fEkl4y2H,full,klassikaal_3,652fe10cdc68ac1c61cf9cec,participant,Amber,,,,,,,,,,,,,,,,,,,,,,,,
,park1-image,html.Page,10_1,,,form submission,22944.619999999995,520765,520762.9,520774.38,543719,543720,2023-12-04T10:21:08.098Z,543725.6,S7fEkl4y2H,full,klassikaal_3,652fe10cdc68ac1c61cf9cec,participant,Amber,,,,,,,,,,,,,,,,,,,,,kindje fietst achter de moeder op een fiets met zijwieltjes,,,
,answer,html.Page,10_2,,,form submission,4949.400000000023,543721,543719.04,543725.6,548675,548677,2023-12-04T10:21:13.055Z,548675.8,S7fEkl4y2H,full,klassikaal_3,652fe10cdc68ac1c61cf9cec,participant,Amber,,,,,,,,,,,,,,,,,,,,,,,,
,park1,flow.Sequence,10,,,completion,44268.32000000001,504395,504392.86,504406.68,548675,548678,2023-12-04T10:21:13.056Z,548675.8,S7fEkl4y2H,full,klassikaal_3,652fe10cdc68ac1c61cf9cec,participant,Amber,,,,,,,,,,,,,,,,,,,,,,,,
,prepare,html.Page,11_0,,,form submission,32025.199999999953,548678,548672.84,548675.8,580701,580703,2023-12-04T10:21:45.082Z,580710.9,S7fEkl4y2H,full,klassikaal_3,652fe10cdc68ac1c61cf9cec,participant,Amber,,,,,,,,,,,,,,,,,,,,,,,,
,park2-image,html.Page,11_1,,,form submission,17401.099999999977,580704,580697.92,580710.9,598112,598112,2023-12-04T10:22:02.491Z,598111.86,S7fEkl4y2H,full,klassikaal_3,652fe10cdc68ac1c61cf9cec,participant,Amber,,,,,,,,,,,,,,,,,,,,,,,twee bloembakken (met witte en gele bloemen),
,answer,html.Page,11_2,,,form submission,3672.140000000014,598113,598110.2,598111.86,601784,601784,2023-12-04T10:22:06.163Z,601795.5,S7fEkl4y2H,full,klassikaal_3,652fe10cdc68ac1c61cf9cec,participant,Amber,,,,,,,,,,,,,,,,,,,,,,,,
,park2,flow.Sequence,11,,,completion,53108.19999999995,548678,548672.84,548675.8,601784,601785,2023-12-04T10:22:06.164Z,601795.5,S7fEkl4y2H,full,klassikaal_3,652fe10cdc68ac1c61cf9cec,participant,Amber,,,,,,,,,,,,,,,,,,,,,,,,
,bedankt,html.Page,12,,,timeout,3000.180000000051,601785,601782.6,601795.5,604779,604780,2023-12-04T10:22:09.159Z,604795.68,S7fEkl4y2H,full,klassikaal_3,652fe10cdc68ac1c61cf9cec,participant,Amber,,,,,,,,,,,,,,,,,,,,,,,,
,root,flow.Sequence,,,,completion,599766.64,5011,5010.78,5012.36,604779,604781,2023-12-04T10:22:09.159Z,604795.68,S7fEkl4y2H,full,klassikaal_3,652fe10cdc68ac1c61cf9cec,participant,Amber,,,,,,,,,,,,,,,,,,,,,,,,