meta,sender,sender_type,sender_id,Order,,ended_on,duration,time_run,time_render,time_show,time_end,time_commit,timestamp,time_switch,openLabId,type,task,project,status,code,confirmationCode,participant_L1,university_level,age,gender,gender_other,try-out_answer_L2,try-out_answer_L1,beach1_answer_L2,beach1_answer_L1,street1_answer_L2,street1_answer_L1,farm1_answer_L2,farm1_answer_L1,beach2_answer_L2,beach2_answer_L1,street2_answer_L2,street2_answer_L1,farm2_answer_L2,farm2_answer_L1,park1_answer_L2,park1_answer_L1,park2_answer_L2,park2_answer_L1
"{""labjs_version"":""20.2.4"",""labjs_build"":{""flavor"":""production"",""commit"":""f5b4a49f956347addd546a832a3327688c2c0fef""},""location"":""https://open-lab.online/test/klassikaal_3/656da5f6fa275e2b7bdef786"",""userAgent"":""Mozilla/5.0 (Macintosh; Intel Mac OS X 10_15_7) AppleWebKit/537.36 (KHTML, like Gecko) Chrome/119.0.0.0 Safari/537.36"",""platform"":""MacIntel"",""language"":""nl-NL"",""locale"":""nl"",""timeZone"":""Europe/Brussels"",""timezoneOffset"":-60,""screen_width"":1470,""screen_height"":956,""scroll_width"":1470,""scroll_height"":755,""window_innerWidth"":1470,""window_innerHeight"":803,""devicePixelRatio"":2}",ID,html.Page,0,4,,form submission,3343.7469999046325,1969.7999997138977,1932.021,1965.353,5309.099999904633,5310,2023-12-04T10:12:11.915Z,5315.219,bC3LdOTvrF,full,klassikaal_3,652fe10cdc68ac1c61cf9cec,participant,Camille,321805,,,,,,,,,,,,,,,,,,,,,,,
,language,html.Page,1,,,form submission,19179.38099990463,5310.299999713898,5298.553,5315.219,24494.599999904633,24495.299999713898,2023-12-04T10:12:31.100Z,24498.699,bC3LdOTvrF,full,klassikaal_3,652fe10cdc68ac1c61cf9cec,participant,Camille,,Nederlands,MA,,,,,,,,,,,,,,,,,,,,,
,age-gender,html.Page,2,,,form submission,5107.900999904632,24495.699999809265,24482.033,24498.699,29606.599999904633,29606.799999713898,2023-12-04T10:12:36.212Z,29615.161,bC3LdOTvrF,full,klassikaal_3,652fe10cdc68ac1c61cf9cec,participant,Camille,,,,22,v,,,,,,,,,,,,,,,,,,,
,prepare,html.Page,3_0,,,form submission,100061.6389997139,29607.099999904633,29598.495,29615.161,129676.7999997139,129677.19999980927,2023-12-04T10:14:16.281Z,129681.873,bC3LdOTvrF,full,klassikaal_3,652fe10cdc68ac1c61cf9cec,participant,Camille,,,,,,,,,,,,,,,,,,,,,,,,
,try-out-image,html.Page,3_1,,,form submission,15861.326999809258,129677.40000009537,129665.207,129681.873,145543.19999980927,145543.5,2023-12-04T10:14:32.147Z,145548.282,bC3LdOTvrF,full,klassikaal_3,652fe10cdc68ac1c61cf9cec,participant,Camille,,,,,,,Twee Eenden,Twee Eenden,,,,,,,,,,,,,,,,
,answer,html.Page,3_2,,,form submission,58529.11800009536,145543.69999980927,145531.616,145548.282,204077.40000009537,204077.7999997139,2023-12-04T10:15:30.681Z,204081.664,bC3LdOTvrF,full,klassikaal_3,652fe10cdc68ac1c61cf9cec,participant,Camille,,,,,,,,,,,,,,,,,,,,,,,,
,try-out,flow.Sequence,3,,,completion,174462.23900009537,29607,29598.495,29615.161,204077.40000009537,204080.69999980927,2023-12-04T10:15:30.684Z,204081.664,bC3LdOTvrF,full,klassikaal_3,652fe10cdc68ac1c61cf9cec,participant,Camille,,,,,,,,,,,,,,,,,,,,,,,,
,prepare,html.Page,4_0,,,form submission,642.5359998092754,204080.90000009537,204064.998,204081.664,204724.19999980927,204724.69999980927,2023-12-04T10:15:31.328Z,204731.638,bC3LdOTvrF,full,klassikaal_3,652fe10cdc68ac1c61cf9cec,participant,Camille,,,,,,,,,,,,,,,,,,,,,,,,
,beach1-image,html.Page,4_1,,,form submission,12435.161999713891,204724.7999997139,204714.972,204731.638,217166.7999997139,217167.5,2023-12-04T10:15:43.770Z,217181.52,bC3LdOTvrF,full,klassikaal_3,652fe10cdc68ac1c61cf9cec,participant,Camille,,,,,,,,,De man moet vissen,De man moet vissen,,,,,,,,,,,,,,
,answer,html.Page,4_2,,,form submission,38519.679999809276,217167.7999997139,217164.854,217181.52,255701.19999980927,255701.7999997139,2023-12-04T10:16:22.304Z,255714.857,bC3LdOTvrF,full,klassikaal_3,652fe10cdc68ac1c61cf9cec,participant,Camille,,,,,,,,,,,,,,,,,,,,,,,,
,beach1,flow.Sequence,4,,,completion,51619.535999809275,204080.90000009537,204064.998,204081.664,255701.19999980927,255702,2023-12-04T10:16:22.305Z,255714.857,bC3LdOTvrF,full,klassikaal_3,652fe10cdc68ac1c61cf9cec,participant,Camille,,,,,,,,,,,,,,,,,,,,,,,,
,prepare,html.Page,5_0,,,form submission,1665.2429999046435,255702.2999997139,255698.191,255714.857,257380.09999990463,257380.40000009537,2023-12-04T10:16:23.983Z,257381.457,bC3LdOTvrF,full,klassikaal_3,652fe10cdc68ac1c61cf9cec,participant,Camille,,,,,,,,,,,,,,,,,,,,,,,,
,street1-image,html.Page,5_1,,,form submission,12755.443000095373,257380.59999990463,257364.791,257381.457,270136.90000009537,270137.2999997139,2023-12-04T10:16:36.740Z,270147.993,bC3LdOTvrF,full,klassikaal_3,652fe10cdc68ac1c61cf9cec,participant,Camille,,,,,,,,,,,De luifel met witte en rode strepen,De luifel met witte en rode strepen,,,,,,,,,,,,
,answer,html.Page,5_2,,,form submission,2735.606999904616,270137.59999990463,270131.327,270147.993,272883.59999990463,272884.09999990463,2023-12-04T10:16:39.486Z,272897.883,bC3LdOTvrF,full,klassikaal_3,652fe10cdc68ac1c61cf9cec,participant,Camille,,,,,,,,,,,,,,,,,,,,,,,,
,street1,flow.Sequence,5,,,completion,17168.742999904644,255702.09999990463,255698.191,255714.857,272883.59999990463,272884.2999997139,2023-12-04T10:16:39.487Z,272897.883,bC3LdOTvrF,full,klassikaal_3,652fe10cdc68ac1c61cf9cec,participant,Camille,,,,,,,,,,,,,,,,,,,,,,,,
,prepare,html.Page,6_0,,,form submission,30178.017000095395,272884.40000009537,272881.217,272897.883,303075.90000009537,303076.19999980927,2023-12-04T10:17:09.678Z,303081.376,bC3LdOTvrF,full,klassikaal_3,652fe10cdc68ac1c61cf9cec,participant,Camille,,,,,,,,,,,,,,,,,,,,,,,,
,farm1-image,html.Page,6_1,,,form submission,8641.524000095378,303076.40000009537,303064.71,303081.376,311722.90000009537,311723.09999990463,2023-12-04T10:17:18.325Z,311731.404,bC3LdOTvrF,full,klassikaal_3,652fe10cdc68ac1c61cf9cec,participant,Camille,,,,,,,,,,,,,De kettingzaag,De kettingzaag,,,,,,,,,,
,answer,html.Page,6_2,,,form submission,22288.795999809285,311723.19999980927,311714.738,311731.404,334020.19999980927,334020.69999980927,2023-12-04T10:17:40.622Z,334031.049,bC3LdOTvrF,full,klassikaal_3,652fe10cdc68ac1c61cf9cec,participant,Camille,,,,,,,,,,,,,,,,,,,,,,,,
,farm1,flow.Sequence,6,,,completion,61122.31699980929,272884.40000009537,272881.217,272897.883,334020.19999980927,334020.7999997139,2023-12-04T10:17:40.623Z,334031.049,bC3LdOTvrF,full,klassikaal_3,652fe10cdc68ac1c61cf9cec,participant,Camille,,,,,,,,,,,,,,,,,,,,,,,,
,prepare,html.Page,7_0,,,form submission,28973.2509997139,334021,334014.383,334031.049,363004.2999997139,363004.69999980927,2023-12-04T10:18:09.606Z,363014.447,bC3LdOTvrF,full,klassikaal_3,652fe10cdc68ac1c61cf9cec,participant,Camille,,,,,,,,,,,,,,,,,,,,,,,,
,beach2-image,html.Page,7_1,,,form submission,12150.75299980928,363004.69999980927,362997.781,363014.447,375165.19999980927,375165.59999990463,2023-12-04T10:18:21.767Z,375164.336,bC3LdOTvrF,full,klassikaal_3,652fe10cdc68ac1c61cf9cec,participant,Camille,,,,,,,,,,,,,,,De mannen die duwen,De mannen die duwen,,,,,,,,
,answer,html.Page,7_2,,,form submission,12776.564000095357,375165.90000009537,375147.67,375164.336,387940.90000009537,387941.19999980927,2023-12-04T10:18:34.542Z,387947.532,bC3LdOTvrF,full,klassikaal_3,652fe10cdc68ac1c61cf9cec,participant,Camille,,,,,,,,,,,,,,,,,,,,,,,,
,beach2,flow.Sequence,7,,,completion,53909.85100009537,334020.90000009537,334014.383,334031.049,387940.90000009537,387941.40000009537,2023-12-04T10:18:34.543Z,387947.532,bC3LdOTvrF,full,klassikaal_3,652fe10cdc68ac1c61cf9cec,participant,Camille,,,,,,,,,,,,,,,,,,,,,,,,
,prepare,html.Page,8_0,,,form submission,26327.067999904626,387941.5,387930.866,387947.532,414274.59999990463,414275,2023-12-04T10:19:00.876Z,414281.097,bC3LdOTvrF,full,klassikaal_3,652fe10cdc68ac1c61cf9cec,participant,Camille,,,,,,,,,,,,,,,,,,,,,,,,
,street2-image,html.Page,8_1,,,form submission,9699.202999713889,414275.09999990463,414264.431,414281.097,423980.2999997139,423980.7999997139,2023-12-04T10:19:10.582Z,423981.083,bC3LdOTvrF,full,klassikaal_3,652fe10cdc68ac1c61cf9cec,participant,Camille,,,,,,,,,,,,,,,,,De rode strik bij de beer,De rode strik bij de beer,,,,,,
,answer,html.Page,8_2,,,form submission,5339.516999904648,423981,423964.417,423981.083,429320.59999990463,429320.90000009537,2023-12-04T10:19:15.922Z,429330.869,bC3LdOTvrF,full,klassikaal_3,652fe10cdc68ac1c61cf9cec,participant,Camille,,,,,,,,,,,,,,,,,,,,,,,,
,street2,flow.Sequence,8,,,completion,41373.067999904626,387941.5,387930.866,387947.532,429320.59999990463,429321.19999980927,2023-12-04T10:19:15.922Z,429330.869,bC3LdOTvrF,full,klassikaal_3,652fe10cdc68ac1c61cf9cec,participant,Camille,,,,,,,,,,,,,,,,,,,,,,,,
,prepare,html.Page,9_0,,,form submission,50868.630999999994,429321.2999997139,429314.203,429330.869,480199.5,480199.69999980927,2023-12-04T10:20:06.800Z,480214.112,bC3LdOTvrF,full,klassikaal_3,652fe10cdc68ac1c61cf9cec,participant,Camille,,,,,,,,,,,,,,,,,,,,,,,,
,farm2-image,html.Page,9_1,,,form submission,3526.4879999046098,480199.90000009537,480197.446,480214.112,483740.59999990463,483740.90000009537,2023-12-04T10:20:10.341Z,483747.304,bC3LdOTvrF,full,klassikaal_3,652fe10cdc68ac1c61cf9cec,participant,Camille,,,,,,,,,,,,,,,,,,,/,/,,,,
,answer,html.Page,9_2,,,form submission,39230.096000095364,483741.09999990463,483730.638,483747.304,522977.40000009537,522977.7999997139,2023-12-04T10:20:49.578Z,522980.789,bC3LdOTvrF,full,klassikaal_3,652fe10cdc68ac1c61cf9cec,participant,Camille,,,,,,,,,,,,,,,,,,,,,,,,
,farm2,flow.Sequence,9,,,completion,93646.53100009536,429321.2999997139,429314.203,429330.869,522977.40000009537,522978.19999980927,2023-12-04T10:20:49.578Z,522980.789,bC3LdOTvrF,full,klassikaal_3,652fe10cdc68ac1c61cf9cec,participant,Camille,,,,,,,,,,,,,,,,,,,,,,,,
,prepare,html.Page,10_0,,,form submission,1466.4109998092754,522978.2999997139,522964.123,522980.789,524447.1999998093,524447.5999999046,2023-12-04T10:20:51.047Z,524447.397,bC3LdOTvrF,full,klassikaal_3,652fe10cdc68ac1c61cf9cec,participant,Camille,,,,,,,,,,,,,,,,,,,,,,,,
,park1-image,html.Page,10_1,,,form submission,12768.802999809268,524447.6999998093,524430.731,524447.397,537216.1999998093,537216.5999999046,2023-12-04T10:21:03.816Z,537230.606,bC3LdOTvrF,full,klassikaal_3,652fe10cdc68ac1c61cf9cec,participant,Camille,,,,,,,,,,,,,,,,,,,,,Kindje op de fiets met zijwieltjes,Kindje op de fiets met zijwieltjes,,
,answer,html.Page,10_2,,,form submission,1464.3939999999711,537216.7999997139,537213.94,537230.606,538695,538695.2999997139,2023-12-04T10:21:05.295Z,538697.214,bC3LdOTvrF,full,klassikaal_3,652fe10cdc68ac1c61cf9cec,participant,Camille,,,,,,,,,,,,,,,,,,,,,,,,
,park1,flow.Sequence,10,,,completion,15714.21100000001,522978.2999997139,522964.123,522980.789,538695,538695.5,2023-12-04T10:21:05.295Z,538697.214,bC3LdOTvrF,full,klassikaal_3,652fe10cdc68ac1c61cf9cec,participant,Camille,,,,,,,,,,,,,,,,,,,,,,,,
,prepare,html.Page,11_0,,,form submission,45115.48599980923,538695.5999999046,538680.548,538697.214,583812.6999998093,583813.0999999046,2023-12-04T10:21:50.412Z,583813.959,bC3LdOTvrF,full,klassikaal_3,652fe10cdc68ac1c61cf9cec,participant,Camille,,,,,,,,,,,,,,,,,,,,,,,,
,park2-image,html.Page,11_1,,,form submission,13612.441000095336,583813.1999998093,583797.293,583813.959,597426.4000000954,597426.7999997139,2023-12-04T10:22:04.026Z,597430.456,bC3LdOTvrF,full,klassikaal_3,652fe10cdc68ac1c61cf9cec,participant,Camille,,,,,,,,,,,,,,,,,,,,,,,Tweede bloembak met witte bloemen,Tweede bloembak met witte bloemen
,answer,html.Page,11_2,,,form submission,2470.843999713892,597427,597413.79,597430.456,599901.2999997139,599901.5999999046,2023-12-04T10:22:06.501Z,599913.69,bC3LdOTvrF,full,klassikaal_3,652fe10cdc68ac1c61cf9cec,participant,Camille,,,,,,,,,,,,,,,,,,,,,,,,
,park2,flow.Sequence,11,,,completion,61204.08599971386,538695.5999999046,538680.548,538697.214,599901.2999997139,599901.9000000954,2023-12-04T10:22:06.501Z,599913.69,bC3LdOTvrF,full,klassikaal_3,652fe10cdc68ac1c61cf9cec,participant,Camille,,,,,,,,,,,,,,,,,,,,,,,,
,bedankt,html.Page,12,,,timeout,2999.8800000000047,599902,599897.024,599913.69,602896.904,602899.0999999046,2023-12-04T10:22:09.498Z,602913.57,bC3LdOTvrF,full,klassikaal_3,652fe10cdc68ac1c61cf9cec,participant,Camille,,,,,,,,,,,,,,,,,,,,,,,,
,root,flow.Sequence,,,,completion,600931.551,1969.7999997138977,1932.021,1965.353,602896.904,602899.6999998093,2023-12-04T10:22:09.499Z,602913.57,bC3LdOTvrF,full,klassikaal_3,652fe10cdc68ac1c61cf9cec,participant,Camille,,,,,,,,,,,,,,,,,,,,,,,,