meta,sender,sender_type,sender_id,Order,,ended_on,duration,time_run,time_render,time_show,time_end,time_commit,timestamp,time_switch,openLabId,type,task,project,status,code,confirmationCode,participant_L1,university_level,age,gender,gender_other,try-out_answer_L2,try-out_answer_L1,beach1_answer_L2,beach1_answer_L1,street1_answer_L2,street1_answer_L1,farm1_answer_L2,farm1_answer_L1,beach2_answer_L2,beach2_answer_L1,street2_answer_L2,street2_answer_L1,farm2_answer_L2,farm2_answer_L1,park1_answer_L2,park1_answer_L1,park2_answer_L2,park2_answer_L1
"{""labjs_version"":""20.2.4"",""labjs_build"":{""flavor"":""production"",""commit"":""f5b4a49f956347addd546a832a3327688c2c0fef""},""location"":""https://open-lab.online/test/klassikaal_3/656da5ecfa275e2b7bdef766"",""userAgent"":""Mozilla/5.0 (Windows NT 10.0; Win64; x64) AppleWebKit/537.36 (KHTML, like Gecko) Chrome/119.0.0.0 Safari/537.36"",""platform"":""Win32"",""language"":""nl-NL"",""locale"":""nl"",""timeZone"":""Europe/Brussels"",""timezoneOffset"":-60,""screen_width"":1536,""screen_height"":864,""scroll_width"":1536,""scroll_height"":647,""window_innerWidth"":1536,""window_innerHeight"":695,""devicePixelRatio"":1.25}",ID,html.Page,0,4,,form submission,4493.197000095368,1758.7000000476837,1685.051,1751.703,6244.900000095367,6246,2023-12-04T10:12:03.888Z,6249.856,uuU8WsLVJT,full,klassikaal_3,652fe10cdc68ac1c61cf9cec,participant,Sofie,533559,,,,,,,,,,,,,,,,,,,,,,,
,language,html.Page,1,,,form submission,50421.04400009537,6246.700000047684,6237.058,6249.856,56670.90000009537,56671.60000014305,2023-12-04T10:12:54.309Z,56677.534,uuU8WsLVJT,full,klassikaal_3,652fe10cdc68ac1c61cf9cec,participant,Sofie,,Nederlands,MA,,,,,,,,,,,,,,,,,,,,,
,age-gender,html.Page,2,,,form submission,6432.166000047684,56672.299999952316,56660.881,56677.534,63109.700000047684,63109.90000009537,2023-12-04T10:13:00.747Z,63124.559,uuU8WsLVJT,full,klassikaal_3,652fe10cdc68ac1c61cf9cec,participant,Sofie,,,,22,v,,,,,,,,,,,,,,,,,,,
,prepare,html.Page,3_0,,,form submission,79456.74099995231,63110.10000014305,63108.174,63124.559,142581.29999995232,142581.90000009537,2023-12-04T10:14:20.224Z,142589.548,uuU8WsLVJT,full,klassikaal_3,652fe10cdc68ac1c61cf9cec,participant,Sofie,,,,,,,,,,,,,,,,,,,,,,,,
,try-out-image,html.Page,3_1,,,form submission,10724.552000143041,142582.29999995232,142572.784,142589.548,153314.10000014305,153314.5,2023-12-04T10:14:30.956Z,153318.005,uuU8WsLVJT,full,klassikaal_3,652fe10cdc68ac1c61cf9cec,participant,Sofie,,,,,,,twee eenden,,,,,,,,,,,,,,,,,
,answer,html.Page,3_2,,,form submission,3226.5950001430465,153314.60000014305,153301.335,153318.005,156544.60000014305,156545.20000004768,2023-12-04T10:14:34.187Z,156550.005,uuU8WsLVJT,full,klassikaal_3,652fe10cdc68ac1c61cf9cec,participant,Sofie,,,,,,,,,,,,,,,,,,,,,,,,
,try-out,flow.Sequence,3,,,completion,93420.04100014304,63110.10000014305,63108.174,63124.559,156544.60000014305,156550.60000014305,2023-12-04T10:14:34.192Z,156550.005,uuU8WsLVJT,full,klassikaal_3,652fe10cdc68ac1c61cf9cec,participant,Sofie,,,,,,,,,,,,,,,,,,,,,,,,
,prepare,html.Page,4_0,,,form submission,58679.89500009536,156551,156533.205,156550.005,215229.90000009537,215230.40000009537,2023-12-04T10:15:32.873Z,215240.636,uuU8WsLVJT,full,klassikaal_3,652fe10cdc68ac1c61cf9cec,participant,Sofie,,,,,,,,,,,,,,,,,,,,,,,,
,beach1-image,html.Page,4_1,,,form submission,5743.564000047685,215230.70000004768,215224.21,215240.636,220984.20000004768,220984.5,2023-12-04T10:15:38.627Z,220988.094,uuU8WsLVJT,full,klassikaal_3,652fe10cdc68ac1c61cf9cec,participant,Sofie,,,,,,,,,vishengel,,,,,,,,,,,,,,,
,answer,html.Page,4_2,,,form submission,47014.60600004767,220984.70000004768,220971.366,220988.094,268002.7000000477,268003.2999999523,2023-12-04T10:16:25.646Z,268017.22,uuU8WsLVJT,full,klassikaal_3,652fe10cdc68ac1c61cf9cec,participant,Sofie,,,,,,,,,,,,,,,,,,,,,,,,
,beach1,flow.Sequence,4,,,completion,111452.69500004768,156550.90000009537,156533.205,156550.005,268002.7000000477,268003.7000000477,2023-12-04T10:16:25.646Z,268017.22,uuU8WsLVJT,full,klassikaal_3,652fe10cdc68ac1c61cf9cec,participant,Sofie,,,,,,,,,,,,,,,,,,,,,,,,
,prepare,html.Page,5_0,,,form submission,988.4800000477117,268004,268001.183,268017.22,269005.7000000477,269006,2023-12-04T10:16:26.648Z,269016.828,uuU8WsLVJT,full,klassikaal_3,652fe10cdc68ac1c61cf9cec,participant,Sofie,,,,,,,,,,,,,,,,,,,,,,,,
,street1-image,html.Page,5_1,,,form submission,3773.971999952337,269006.10000014305,269000.596,269016.828,272790.7999999523,272791.2999999523,2023-12-04T10:16:30.434Z,272798.535,uuU8WsLVJT,full,klassikaal_3,652fe10cdc68ac1c61cf9cec,participant,Sofie,,,,,,,,,,,luifel,,,,,,,,,,,,,
,answer,html.Page,5_2,,,form submission,42607.26499995234,272791.5,272781.75,272798.535,315405.7999999523,315406.7000000477,2023-12-04T10:17:13.049Z,315413.034,uuU8WsLVJT,full,klassikaal_3,652fe10cdc68ac1c61cf9cec,participant,Sofie,,,,,,,,,,,,,,,,,,,,,,,,
,street1,flow.Sequence,5,,,completion,47388.579999952344,268003.90000009537,268001.183,268017.22,315405.7999999523,315407.2999999523,2023-12-04T10:17:13.049Z,315413.034,uuU8WsLVJT,full,klassikaal_3,652fe10cdc68ac1c61cf9cec,participant,Sofie,,,,,,,,,,,,,,,,,,,,,,,,
,prepare,html.Page,6_0,,,form submission,1015.6660000476986,315407.60000014305,315396.974,315413.034,316428.7000000477,316429.2000000477,2023-12-04T10:17:14.071Z,316449.999,uuU8WsLVJT,full,klassikaal_3,652fe10cdc68ac1c61cf9cec,participant,Sofie,,,,,,,,,,,,,,,,,,,,,,,,
,farm1-image,html.Page,6_1,,,form submission,4683.000999999989,316429.40000009537,316421.828,316449.999,321133,321133.2000000477,2023-12-04T10:17:18.775Z,321143.728,uuU8WsLVJT,full,klassikaal_3,652fe10cdc68ac1c61cf9cec,participant,Sofie,,,,,,,,,,,,,kettingzaag,,,,,,,,,,,
,answer,html.Page,6_2,,,form submission,47356.97200004768,321133.2999999523,321127.597,321143.728,368500.7000000477,368501.2999999523,2023-12-04T10:18:06.143Z,368506.16,uuU8WsLVJT,full,klassikaal_3,652fe10cdc68ac1c61cf9cec,participant,Sofie,,,,,,,,,,,,,,,,,,,,,,,,
,farm1,flow.Sequence,6,,,completion,53087.6660000477,315407.60000014305,315396.974,315413.034,368500.7000000477,368501.90000009537,2023-12-04T10:18:06.144Z,368506.16,uuU8WsLVJT,full,klassikaal_3,652fe10cdc68ac1c61cf9cec,participant,Sofie,,,,,,,,,,,,,,,,,,,,,,,,
,prepare,html.Page,7_0,,,form submission,2362.5400000477093,368502.2999999523,368489.403,368506.16,370868.7000000477,370869.2000000477,2023-12-04T10:18:08.511Z,370871.807,uuU8WsLVJT,full,klassikaal_3,652fe10cdc68ac1c61cf9cec,participant,Sofie,,,,,,,,,,,,,,,,,,,,,,,,
,beach2-image,html.Page,7_1,,,form submission,6916.492999952345,370869.40000009537,370855.532,370871.807,377788.2999999523,377788.7999999523,2023-12-04T10:18:15.431Z,377802.047,uuU8WsLVJT,full,klassikaal_3,652fe10cdc68ac1c61cf9cec,participant,Sofie,,,,,,,,,,,,,,,twee mannen,,,,,,,,,
,answer,html.Page,7_2,,,form submission,19726.05300014303,377789.2000000477,377785.863,377802.047,397528.10000014305,397528.7000000477,2023-12-04T10:18:35.171Z,397543.375,uuU8WsLVJT,full,klassikaal_3,652fe10cdc68ac1c61cf9cec,participant,Sofie,,,,,,,,,,,,,,,,,,,,,,,,
,beach2,flow.Sequence,7,,,completion,29021.940000143077,368502.2000000477,368489.403,368506.16,397528.10000014305,397529.2000000477,2023-12-04T10:18:35.171Z,397543.375,uuU8WsLVJT,full,klassikaal_3,652fe10cdc68ac1c61cf9cec,participant,Sofie,,,,,,,,,,,,,,,,,,,,,,,,
,prepare,html.Page,8_0,,,form submission,24491.625,397529.7000000477,397526.987,397543.375,422035,422035.5,2023-12-04T10:18:59.678Z,422049.092,uuU8WsLVJT,full,klassikaal_3,652fe10cdc68ac1c61cf9cec,participant,Sofie,,,,,,,,,,,,,,,,,,,,,,,,
,street2-image,html.Page,8_1,,,form submission,4010.8080000953632,422035.7000000477,422033.111,422049.092,426059.90000009537,426060.2999999523,2023-12-04T10:19:03.702Z,426063.971,uuU8WsLVJT,full,klassikaal_3,652fe10cdc68ac1c61cf9cec,participant,Sofie,,,,,,,,,,,,,,,,,rode strik,,,,,,,
,answer,html.Page,8_2,,,form submission,4898.629000143032,426060.5,426047.453,426063.971,430962.60000014305,430963.10000014305,2023-12-04T10:19:08.605Z,430995.665,uuU8WsLVJT,full,klassikaal_3,652fe10cdc68ac1c61cf9cec,participant,Sofie,,,,,,,,,,,,,,,,,,,,,,,,
,street2,flow.Sequence,8,,,completion,33419.22500014305,397529.5,397526.987,397543.375,430962.60000014305,430963.5,2023-12-04T10:19:08.606Z,430995.665,uuU8WsLVJT,full,klassikaal_3,652fe10cdc68ac1c61cf9cec,participant,Sofie,,,,,,,,,,,,,,,,,,,,,,,,
,prepare,html.Page,9_0,,,form submission,50577.43500014307,430963.7999999523,430978.961,430995.665,481573.10000014305,481573.40000009537,2023-12-04T10:19:59.215Z,481606.082,uuU8WsLVJT,full,klassikaal_3,652fe10cdc68ac1c61cf9cec,participant,Sofie,,,,,,,,,,,,,,,,,,,,,,,,
,farm2-image,html.Page,9_1,,,form submission,11097.918000000005,481573.60000014305,481589.472,481606.082,492704,492704.2000000477,2023-12-04T10:20:10.346Z,492717.818,uuU8WsLVJT,full,klassikaal_3,652fe10cdc68ac1c61cf9cec,participant,Sofie,,,,,,,,,,,,,,,,,,,aanvallen,,,,,
,answer,html.Page,9_2,,,form submission,2290.6819999999716,492704.40000009537,492701.394,492717.818,495008.5,495008.7999999523,2023-12-04T10:20:12.650Z,495016.858,uuU8WsLVJT,full,klassikaal_3,652fe10cdc68ac1c61cf9cec,participant,Sofie,,,,,,,,,,,,,,,,,,,,,,,,
,farm2,flow.Sequence,9,,,completion,64012.83500000002,430963.7000000477,430978.961,430995.665,495008.5,495009.2000000477,2023-12-04T10:20:12.651Z,495016.858,uuU8WsLVJT,full,klassikaal_3,652fe10cdc68ac1c61cf9cec,participant,Sofie,,,,,,,,,,,,,,,,,,,,,,,,
,prepare,html.Page,10_0,,,form submission,36899.94199995231,495009.40000009537,495000.124,495016.858,531916.7999999523,531917.2999999523,2023-12-04T10:20:49.559Z,531938.027,uuU8WsLVJT,full,klassikaal_3,652fe10cdc68ac1c61cf9cec,participant,Sofie,,,,,,,,,,,,,,,,,,,,,,,,
,park1-image,html.Page,10_1,,,form submission,5786.272999952314,531917.600000143,531900.508,531938.027,537724.2999999523,537724.7000000477,2023-12-04T10:20:55.366Z,537731.309,uuU8WsLVJT,full,klassikaal_3,652fe10cdc68ac1c61cf9cec,participant,Sofie,,,,,,,,,,,,,,,,,,,,,kindje op de fiets,,,
,answer,html.Page,10_2,,,form submission,59923.29100014304,537725,537722.581,537731.309,597654.600000143,597655,2023-12-04T10:21:55.298Z,597675.487,uuU8WsLVJT,full,klassikaal_3,652fe10cdc68ac1c61cf9cec,participant,Sofie,,,,,,,,,,,,,,,,,,,,,,,,
,park1,flow.Sequence,10,,,completion,102637.74200014304,495009.40000009537,495000.124,495016.858,597654.600000143,597655.5,2023-12-04T10:21:55.298Z,597675.487,uuU8WsLVJT,full,klassikaal_3,652fe10cdc68ac1c61cf9cec,participant,Sofie,,,,,,,,,,,,,,,,,,,,,,,,
,prepare,html.Page,11_0,,,form submission,1187.9130000954028,597655.9000000954,597638.499,597675.487,598863.4000000954,598863.7999999523,2023-12-04T10:21:56.506Z,598870.936,uuU8WsLVJT,full,klassikaal_3,652fe10cdc68ac1c61cf9cec,participant,Sofie,,,,,,,,,,,,,,,,,,,,,,,,
,park2-image,html.Page,11_1,,,form submission,6916.164000143064,598864.2000000477,598854.388,598870.936,605787.100000143,605787.600000143,2023-12-04T10:22:03.430Z,605801.152,uuU8WsLVJT,full,klassikaal_3,652fe10cdc68ac1c61cf9cec,participant,Sofie,,,,,,,,,,,,,,,,,,,,,,,witte bloemen,
,answer,html.Page,11_2,,,form submission,7027.147999952314,605787.9000000954,605784.808,605801.152,612828.2999999523,612828.7000000477,2023-12-04T10:22:10.471Z,612831.415,uuU8WsLVJT,full,klassikaal_3,652fe10cdc68ac1c61cf9cec,participant,Sofie,,,,,,,,,,,,,,,,,,,,,,,,
,park2,flow.Sequence,11,,,completion,15152.812999952352,597655.7999999523,597638.499,597675.487,612828.2999999523,612829.100000143,2023-12-04T10:22:10.472Z,612831.415,uuU8WsLVJT,full,klassikaal_3,652fe10cdc68ac1c61cf9cec,participant,Sofie,,,,,,,,,,,,,,,,,,,,,,,,
,bedankt,html.Page,12,,,timeout,2998.673999999999,612829.2999999523,612814.616,612831.415,615813.407,615815,2023-12-04T10:22:13.458Z,615830.089,uuU8WsLVJT,full,klassikaal_3,652fe10cdc68ac1c61cf9cec,participant,Sofie,,,,,,,,,,,,,,,,,,,,,,,,
,root,flow.Sequence,,,,completion,614061.704,1758.6000001430511,1685.051,1751.703,615813.407,615815.5,2023-12-04T10:22:13.458Z,615830.089,uuU8WsLVJT,full,klassikaal_3,652fe10cdc68ac1c61cf9cec,participant,Sofie,,,,,,,,,,,,,,,,,,,,,,,,