meta,sender,sender_type,sender_id,Order,,ended_on,duration,time_run,time_render,time_show,time_end,time_commit,timestamp,time_switch,openLabId,type,task,project,status,code,confirmationCode,participant_L1,university_level,age,gender,gender_other,try-out_answer_L2,try-out_answer_L1,beach1_answer_L2,beach1_answer_L1,street1_answer_L2,street1_answer_L1,farm1_answer_L2,farm1_answer_L1,beach2_answer_L2,beach2_answer_L1,street2_answer_L2,street2_answer_L1,farm2_answer_L2,farm2_answer_L1,park1_answer_L2,park1_answer_L1,park2_answer_L2,park2_answer_L1
"{""labjs_version"":""20.2.4"",""labjs_build"":{""flavor"":""production"",""commit"":""f5b4a49f956347addd546a832a3327688c2c0fef""},""location"":""https://open-lab.online/test/klassikaal_3/656da5e8fa275e2b7bdef75e"",""userAgent"":""Mozilla/5.0 (Macintosh; Intel Mac OS X 10_15_7) AppleWebKit/605.1.15 (KHTML, like Gecko) Version/16.0 Safari/605.1.15"",""platform"":""MacIntel"",""language"":""nl-NL"",""locale"":""nl-NL"",""timeZone"":""Europe/Brussels"",""timezoneOffset"":-60,""screen_width"":1470,""screen_height"":956,""scroll_width"":1470,""scroll_height"":792,""window_innerWidth"":1470,""window_innerHeight"":840,""devicePixelRatio"":2}",ID,html.Page,0,4,,form submission,4712,1544,1553,1570,6282,6283,2023-12-04T10:11:58.279Z,6303,KKNsslL1ji,full,klassikaal_3,652fe10cdc68ac1c61cf9cec,participant,"Margaux ",244551,,,,,,,,,,,,,,,,,,,,,,,
,language,html.Page,1,,,form submission,17428,6283,6288,6303,23731,23731,2023-12-04T10:12:15.727Z,23753,KKNsslL1ji,full,klassikaal_3,652fe10cdc68ac1c61cf9cec,participant,"Margaux ",,"Nederlands ",MA,,,,,,,,,,,,,,,,,,,,,
,age-gender,html.Page,2,,,form submission,8915,23732,23736,23753,32668,32668,2023-12-04T10:12:24.664Z,32686,KKNsslL1ji,full,klassikaal_3,652fe10cdc68ac1c61cf9cec,participant,"Margaux ",,,,23,v,,,,,,,,,,,,,,,,,,,
,prepare,html.Page,3_0,,,form submission,58403,32669.000000000004,32672,32686,91089,91090,2023-12-04T10:13:23.086Z,91149,KKNsslL1ji,full,klassikaal_3,652fe10cdc68ac1c61cf9cec,participant,"Margaux ",,,,,,,,,,,,,,,,,,,,,,,,
,try-out-image,html.Page,3_1,,,form submission,76931,91090,91103,91149,168080,168081.00000000003,2023-12-04T10:14:40.077Z,168103,KKNsslL1ji,full,klassikaal_3,652fe10cdc68ac1c61cf9cec,participant,"Margaux ",,,,,,,"De 2 eendjes ",,,,,,,,,,,,,,,,,
,answer,html.Page,3_2,,,form submission,51749,168081.00000000003,168086,168103,219852,219857,2023-12-04T10:15:31.854Z,219886,KKNsslL1ji,full,klassikaal_3,652fe10cdc68ac1c61cf9cec,participant,"Margaux ",,,,,,,,,,,,,,,,,,,,,,,,
,try-out,flow.Sequence,3,,,completion,187166,32669.000000000004,32672,32686,219852,219859,2023-12-04T10:15:31.856Z,219886,KKNsslL1ji,full,klassikaal_3,652fe10cdc68ac1c61cf9cec,participant,"Margaux ",,,,,,,,,,,,,,,,,,,,,,,,
,prepare,html.Page,4_0,,,form submission,1702,219860,219869,219886,221588,221588,2023-12-04T10:15:33.584Z,221653,KKNsslL1ji,full,klassikaal_3,652fe10cdc68ac1c61cf9cec,participant,"Margaux ",,,,,,,,,,,,,,,,,,,,,,,,
,beach1-image,html.Page,4_1,,,form submission,6923,221588,221603,221653,228576,228576,2023-12-04T10:15:40.573Z,228602,KKNsslL1ji,full,klassikaal_3,652fe10cdc68ac1c61cf9cec,participant,"Margaux ",,,,,,,,,"er is geen vishengel ",,,,,,,,,,,,,,,
,answer,html.Page,4_2,,,form submission,41854,228576,228586,228602,270456,270457,2023-12-04T10:16:22.454Z,270486,KKNsslL1ji,full,klassikaal_3,652fe10cdc68ac1c61cf9cec,participant,"Margaux ",,,,,,,,,,,,,,,,,,,,,,,,
,beach1,flow.Sequence,4,,,completion,50570,219860,219869,219886,270456,270457,2023-12-04T10:16:22.454Z,270486,KKNsslL1ji,full,klassikaal_3,652fe10cdc68ac1c61cf9cec,participant,"Margaux ",,,,,,,,,,,,,,,,,,,,,,,,
,prepare,html.Page,5_0,,,form submission,1013,270457,270469,270486,271499,271499,2023-12-04T10:16:23.496Z,271529,KKNsslL1ji,full,klassikaal_3,652fe10cdc68ac1c61cf9cec,participant,"Margaux ",,,,,,,,,,,,,,,,,,,,,,,,
,street1-image,html.Page,5_1,,,form submission,8348,271499,271503,271529,279877,279877,2023-12-04T10:16:31.874Z,279903,KKNsslL1ji,full,klassikaal_3,652fe10cdc68ac1c61cf9cec,participant,"Margaux ",,,,,,,,,,,De luifel met witte en rode strepen,,,,,,,,,,,,,
,answer,html.Page,5_2,,,form submission,22861,279878,279886,279903,302764,302765,2023-12-04T10:16:54.762Z,302786,KKNsslL1ji,full,klassikaal_3,652fe10cdc68ac1c61cf9cec,participant,"Margaux ",,,,,,,,,,,,,,,,,,,,,,,,
,street1,flow.Sequence,5,,,completion,32278,270457,270469,270486,302764,302765,2023-12-04T10:16:54.762Z,302786,KKNsslL1ji,full,klassikaal_3,652fe10cdc68ac1c61cf9cec,participant,"Margaux ",,,,,,,,,,,,,,,,,,,,,,,,
,prepare,html.Page,6_0,,,form submission,14584,302765,302769,302786,317370,317370,2023-12-04T10:17:09.367Z,317439,KKNsslL1ji,full,klassikaal_3,652fe10cdc68ac1c61cf9cec,participant,"Margaux ",,,,,,,,,,,,,,,,,,,,,,,,
,farm1-image,html.Page,6_1,,,form submission,10400,317370,317386,317439,327839,327839,2023-12-04T10:17:19.836Z,327869,KKNsslL1ji,full,klassikaal_3,652fe10cdc68ac1c61cf9cec,participant,"Margaux ",,,,,,,,,,,,,"de man is geen boom aan het omzagen ",,,,,,,,,,,
,answer,html.Page,6_2,,,form submission,12551,327839,327852,327869,340420,340420,2023-12-04T10:17:32.417Z,340452,KKNsslL1ji,full,klassikaal_3,652fe10cdc68ac1c61cf9cec,participant,"Margaux ",,,,,,,,,,,,,,,,,,,,,,,,
,farm1,flow.Sequence,6,,,completion,37634,302765,302769,302786,340420,340420,2023-12-04T10:17:32.417Z,340452,KKNsslL1ji,full,klassikaal_3,652fe10cdc68ac1c61cf9cec,participant,"Margaux ",,,,,,,,,,,,,,,,,,,,,,,,
,prepare,html.Page,7_0,,,form submission,31709,340420,340436,340452,372161,372161,2023-12-04T10:18:04.158Z,372234,KKNsslL1ji,full,klassikaal_3,652fe10cdc68ac1c61cf9cec,participant,"Margaux ",,,,,,,,,,,,,,,,,,,,,,,,
,beach2-image,html.Page,7_1,,,form submission,8879,372161,372169,372234,381113,381113,2023-12-04T10:18:13.111Z,381136,KKNsslL1ji,full,klassikaal_3,652fe10cdc68ac1c61cf9cec,participant,"Margaux ",,,,,,,,,,,,,,,De 2 mannen die de auto uit het zand duwen,,,,,,,,,
,answer,html.Page,7_2,,,form submission,45646,381113,381119,381136,426782,426782,2023-12-04T10:18:58.780Z,426802,KKNsslL1ji,full,klassikaal_3,652fe10cdc68ac1c61cf9cec,participant,"Margaux ",,,,,,,,,,,,,,,,,,,,,,,,
,beach2,flow.Sequence,7,,,completion,86330,340420,340436,340452,426782,426782,2023-12-04T10:18:58.780Z,426802,KKNsslL1ji,full,klassikaal_3,652fe10cdc68ac1c61cf9cec,participant,"Margaux ",,,,,,,,,,,,,,,,,,,,,,,,
,prepare,html.Page,8_0,,,form submission,1909,426783,426793,426802,428711,428712,2023-12-04T10:19:00.710Z,428798,KKNsslL1ji,full,klassikaal_3,652fe10cdc68ac1c61cf9cec,participant,"Margaux ",,,,,,,,,,,,,,,,,,,,,,,,
,street2-image,html.Page,8_1,,,form submission,10540,428713,428720,428798,439338,439338,2023-12-04T10:19:11.336Z,439368,KKNsslL1ji,full,klassikaal_3,652fe10cdc68ac1c61cf9cec,participant,"Margaux ",,,,,,,,,,,,,,,,,"De rode strik ",,,,,,,
,answer,html.Page,8_2,,,form submission,22722.00000000006,439338,439352,439368,462090.00000000006,462091,2023-12-04T10:19:34.089Z,462119,KKNsslL1ji,full,klassikaal_3,652fe10cdc68ac1c61cf9cec,participant,"Margaux ",,,,,,,,,,,,,,,,,,,,,,,,
,street2,flow.Sequence,8,,,completion,35288.00000000006,426783,426793,426802,462090.00000000006,462091,2023-12-04T10:19:34.089Z,462119,KKNsslL1ji,full,klassikaal_3,652fe10cdc68ac1c61cf9cec,participant,"Margaux ",,,,,,,,,,,,,,,,,,,,,,,,
,prepare,html.Page,9_0,,,form submission,29075,462092,462102,462119,491194,491195,2023-12-04T10:20:03.193Z,491255,KKNsslL1ji,full,klassikaal_3,652fe10cdc68ac1c61cf9cec,participant,"Margaux ",,,,,,,,,,,,,,,,,,,,,,,,
,farm2-image,html.Page,9_1,,,form submission,5682,491195,491202,491255,496937,496937,2023-12-04T10:20:08.935Z,496968,KKNsslL1ji,full,klassikaal_3,652fe10cdc68ac1c61cf9cec,participant,"Margaux ",,,,,,,,,,,,,,,,,,,niets,,,,,
,answer,html.Page,9_2,,,form submission,37562,496937,496952,496968,534530,534531.0000000001,2023-12-04T10:20:46.529Z,534551,KKNsslL1ji,full,klassikaal_3,652fe10cdc68ac1c61cf9cec,participant,"Margaux ",,,,,,,,,,,,,,,,,,,,,,,,
,farm2,flow.Sequence,9,,,completion,72411,462092,462102,462119,534530,534531.0000000001,2023-12-04T10:20:46.529Z,534551,KKNsslL1ji,full,klassikaal_3,652fe10cdc68ac1c61cf9cec,participant,"Margaux ",,,,,,,,,,,,,,,,,,,,,,,,
,prepare,html.Page,10_0,,,form submission,1044,534531.0000000001,534536,534551,535595,535596,2023-12-04T10:20:47.594Z,535665,KKNsslL1ji,full,klassikaal_3,652fe10cdc68ac1c61cf9cec,participant,"Margaux ",,,,,,,,,,,,,,,,,,,,,,,,
,park1-image,html.Page,10_1,,,form submission,9414.000000000116,535596,535602,535665,545079.0000000001,545079.0000000001,2023-12-04T10:20:57.077Z,545102,KKNsslL1ji,full,klassikaal_3,652fe10cdc68ac1c61cf9cec,participant,"Margaux ",,,,,,,,,,,,,,,,,,,,,het kindje op de fiets met zijwieltjes,,,
,answer,html.Page,10_2,,,form submission,5560,545079.0000000001,545085,545102,550662,550663,2023-12-04T10:21:02.661Z,550685,KKNsslL1ji,full,klassikaal_3,652fe10cdc68ac1c61cf9cec,participant,"Margaux ",,,,,,,,,,,,,,,,,,,,,,,,
,park1,flow.Sequence,10,,,completion,16111,534531.0000000001,534536,534551,550662,550663,2023-12-04T10:21:02.661Z,550685,KKNsslL1ji,full,klassikaal_3,652fe10cdc68ac1c61cf9cec,participant,"Margaux ",,,,,,,,,,,,,,,,,,,,,,,,
,prepare,html.Page,11_0,,,form submission,41927,550663,550669,550685,592612,592612,2023-12-04T10:21:44.610Z,592680,KKNsslL1ji,full,klassikaal_3,652fe10cdc68ac1c61cf9cec,participant,"Margaux ",,,,,,,,,,,,,,,,,,,,,,,,
,park2-image,html.Page,11_1,,,form submission,10987,592612,592618,592680,603667,603667,2023-12-04T10:21:55.665Z,603685,KKNsslL1ji,full,klassikaal_3,652fe10cdc68ac1c61cf9cec,participant,"Margaux ",,,,,,,,,,,,,,,,,,,,,,,er zijn geen witte bloemen,
,answer,html.Page,11_2,,,form submission,10087,603667,603669,603685,613772,613772,2023-12-04T10:22:05.771Z,613802,KKNsslL1ji,full,klassikaal_3,652fe10cdc68ac1c61cf9cec,participant,"Margaux ",,,,,,,,,,,,,,,,,,,,,,,,
,park2,flow.Sequence,11,,,completion,63087,550663,550669,550685,613772,613772,2023-12-04T10:22:05.771Z,613802,KKNsslL1ji,full,klassikaal_3,652fe10cdc68ac1c61cf9cec,participant,"Margaux ",,,,,,,,,,,,,,,,,,,,,,,,
,bedankt,html.Page,12,,,timeout,3000,613773,613785,613802,616785,616785,2023-12-04T10:22:08.784Z,616802,KKNsslL1ji,full,klassikaal_3,652fe10cdc68ac1c61cf9cec,participant,"Margaux ",,,,,,,,,,,,,,,,,,,,,,,,
,root,flow.Sequence,,,,completion,615215,1544,1553,1570,616785,616785,2023-12-04T10:22:08.784Z,616802,KKNsslL1ji,full,klassikaal_3,652fe10cdc68ac1c61cf9cec,participant,"Margaux ",,,,,,,,,,,,,,,,,,,,,,,,