meta,sender,sender_type,sender_id,Order,,ended_on,duration,time_run,time_render,time_show,time_end,time_commit,timestamp,time_switch,openLabId,type,task,project,status,code,confirmationCode,participant_L1,university_level,age,gender,gender_other,try-out_answer_L2,try-out_answer_L1,beach1_answer_L2,beach1_answer_L1,street1_answer_L2,street1_answer_L1,farm1_answer_L2,farm1_answer_L1,beach2_answer_L2,beach2_answer_L1,street2_answer_L2,street2_answer_L1,farm2_answer_L2,farm2_answer_L1,park1_answer_L2,park1_answer_L1,park2_answer_L2,park2_answer_L1
"{""labjs_version"":""20.2.4"",""labjs_build"":{""flavor"":""production"",""commit"":""f5b4a49f956347addd546a832a3327688c2c0fef""},""location"":""https://open-lab.online/test/klassikaal_3/656da5e2fa275e2b7bdef754"",""userAgent"":""Mozilla/5.0 (Windows NT 10.0; Win64; x64) AppleWebKit/537.36 (KHTML, like Gecko) Chrome/119.0.0.0 Safari/537.36"",""platform"":""Win32"",""language"":""nl-NL"",""locale"":""nl"",""timeZone"":""Europe/Brussels"",""timezoneOffset"":-60,""screen_width"":1536,""screen_height"":864,""scroll_width"":1536,""scroll_height"":691,""window_innerWidth"":1536,""window_innerHeight"":739,""devicePixelRatio"":1.25}",ID,html.Page,0,4,,form submission,3568.403999976158,2662.2999999523163,2583.452,2649.996,6218.399999976158,6218.899999976158,2023-12-04T10:13:49.946Z,6229.942,X9gPDhXrJN,full,klassikaal_3,652fe10cdc68ac1c61cf9cec,participant,D,535424,,,,,,,,,,,,,,,,,,,,,,,
,language,html.Page,1,,,form submission,7831.857999952316,6219.200000047684,6213.344,6229.942,14061.799999952316,14062.200000047684,2023-12-04T10:13:57.789Z,14072.568,X9gPDhXrJN,full,klassikaal_3,652fe10cdc68ac1c61cf9cec,participant,D,,"Nederlands, Engels, Frans",MA,,,,,,,,,,,,,,,,,,,,,
,age-gender,html.Page,2,,,form submission,6790.632000047684,14062.399999976158,14055.97,14072.568,20863.200000047684,20863.5,2023-12-04T10:14:04.591Z,20873.521,X9gPDhXrJN,full,klassikaal_3,652fe10cdc68ac1c61cf9cec,participant,D,,,,21,v,,,,,,,,,,,,,,,,,,,
,prepare,html.Page,3_0,,,form submission,12001.778999952316,20863.799999952316,20833.053,20873.521,32875.299999952316,32875.60000002384,2023-12-04T10:14:16.603Z,32888.339,X9gPDhXrJN,full,klassikaal_3,652fe10cdc68ac1c61cf9cec,participant,D,,,,,,,,,,,,,,,,,,,,,,,,
,try-out-image,html.Page,3_1,,,form submission,10070.960999952316,32875.700000047684,32871.608,32888.339,42959.299999952316,42959.700000047684,2023-12-04T10:14:26.687Z,42962.399,X9gPDhXrJN,full,klassikaal_3,652fe10cdc68ac1c61cf9cec,participant,D,,,,,,,eenden,,,,,,,,,,,,,,,,,
,answer,html.Page,3_2,,,form submission,4674.101000000002,42959.89999997616,42945.512,42962.399,47636.5,47636.799999952316,2023-12-04T10:14:31.364Z,47641.342,X9gPDhXrJN,full,klassikaal_3,652fe10cdc68ac1c61cf9cec,participant,D,,,,,,,,,,,,,,,,,,,,,,,,
,try-out,flow.Sequence,3,,,completion,26762.979,20863.700000047684,20833.053,20873.521,47636.5,47638.700000047684,2023-12-04T10:14:31.366Z,47641.342,X9gPDhXrJN,full,klassikaal_3,652fe10cdc68ac1c61cf9cec,participant,D,,,,,,,,,,,,,,,,,,,,,,,,
,prepare,html.Page,4_0,,,form submission,55125.35800004769,47638.89999997616,47624.811,47641.342,102766.70000004768,102767,2023-12-04T10:15:26.497Z,102772.729,X9gPDhXrJN,full,klassikaal_3,652fe10cdc68ac1c61cf9cec,participant,D,,,,,,,,,,,,,,,,,,,,,,,,
,beach1-image,html.Page,4_1,,,form submission,28530.770999999993,102767.20000004768,102756.113,102772.729,131303.5,131303.79999995232,2023-12-04T10:15:55.034Z,131312.566,X9gPDhXrJN,full,klassikaal_3,652fe10cdc68ac1c61cf9cec,participant,D,,,,,,,,,,,,,,,,,,,,,,,,
,answer,html.Page,4_2,,,form submission,6986.434000000008,131304.10000002384,131295.994,131312.566,138299,138299.5,2023-12-04T10:16:02.030Z,138306.018,X9gPDhXrJN,full,klassikaal_3,652fe10cdc68ac1c61cf9cec,participant,D,,,,,,,,,,,,,,,,,,,,,,,,
,beach1,flow.Sequence,4,,,completion,90657.658,47638.799999952316,47624.811,47641.342,138299,138299.79999995232,2023-12-04T10:16:02.030Z,138306.018,X9gPDhXrJN,full,klassikaal_3,652fe10cdc68ac1c61cf9cec,participant,D,,,,,,,,,,,,,,,,,,,,,,,,
,prepare,html.Page,5_0,,,form submission,18563.48199999999,138300,138289.454,138306.018,156869.5,156869.79999995232,2023-12-04T10:16:20.600Z,156872.162,X9gPDhXrJN,full,klassikaal_3,652fe10cdc68ac1c61cf9cec,participant,D,,,,,,,,,,,,,,,,,,,,,,,,
,street1-image,html.Page,5_1,,,form submission,22093.137999952305,156870.10000002384,156855.274,156872.162,178965.29999995232,178965.70000004768,2023-12-04T10:16:42.696Z,178968.029,X9gPDhXrJN,full,klassikaal_3,652fe10cdc68ac1c61cf9cec,participant,D,,,,,,,,,,,luifel,,,,,,,,,,,,,
,answer,html.Page,5_2,,,form submission,13853.071000023832,178965.89999997616,178951.257,178968.029,192821.10000002384,192821.39999997616,2023-12-04T10:16:56.551Z,192821.795,X9gPDhXrJN,full,klassikaal_3,652fe10cdc68ac1c61cf9cec,participant,D,,,,,,,,,,,,,,,,,,,,,,,,
,street1,flow.Sequence,5,,,completion,54515.08200002383,138299.89999997616,138289.454,138306.018,192821.10000002384,192821.70000004768,2023-12-04T10:16:56.552Z,192821.795,X9gPDhXrJN,full,klassikaal_3,652fe10cdc68ac1c61cf9cec,participant,D,,,,,,,,,,,,,,,,,,,,,,,,
,prepare,html.Page,6_0,,,form submission,12031.405000047671,192822,192805.071,192821.795,204853.20000004768,204853.5,2023-12-04T10:17:08.583Z,204860.327,X9gPDhXrJN,full,klassikaal_3,652fe10cdc68ac1c61cf9cec,participant,D,,,,,,,,,,,,,,,,,,,,,,,,
,farm1-image,html.Page,6_1,,,form submission,14188.17300000001,204853.70000004768,204843.73,204860.327,219048.5,219048.79999995232,2023-12-04T10:17:22.779Z,219064.555,X9gPDhXrJN,full,klassikaal_3,652fe10cdc68ac1c61cf9cec,participant,D,,,,,,,,,,,,,kettingzaag,,,,,,,,,,,
,answer,html.Page,6_2,,,form submission,16314.344999976165,219049,219047.015,219064.555,235378.89999997616,235379.20000004768,2023-12-04T10:17:39.109Z,235398.285,X9gPDhXrJN,full,klassikaal_3,652fe10cdc68ac1c61cf9cec,participant,D,,,,,,,,,,,,,,,,,,,,,,,,
,farm1,flow.Sequence,6,,,completion,42557.104999976145,192821.79999995232,192805.071,192821.795,235378.89999997616,235379.39999997616,2023-12-04T10:17:39.109Z,235398.285,X9gPDhXrJN,full,klassikaal_3,652fe10cdc68ac1c61cf9cec,participant,D,,,,,,,,,,,,,,,,,,,,,,,,
,prepare,html.Page,7_0,,,form submission,22345.41500004768,235379.5,235381.673,235398.285,257743.70000004768,257743.89999997616,2023-12-04T10:18:01.474Z,257764.994,X9gPDhXrJN,full,klassikaal_3,652fe10cdc68ac1c61cf9cec,participant,D,,,,,,,,,,,,,,,,,,,,,,,,
,beach2-image,html.Page,7_1,,,form submission,17226.606000023836,257744.10000002384,257727.294,257764.994,274991.60000002384,274992,2023-12-04T10:18:18.722Z,274994.49,X9gPDhXrJN,full,klassikaal_3,652fe10cdc68ac1c61cf9cec,participant,D,,,,,,,,,,,,,,,de twee mannen die de auto uit het zand duwen,,,,,,,,,
,answer,html.Page,7_2,,,form submission,13680.809999952326,274992.10000002384,274977.832,274994.49,288675.2999999523,288675.5,2023-12-04T10:18:32.405Z,288681.608,X9gPDhXrJN,full,klassikaal_3,652fe10cdc68ac1c61cf9cec,participant,D,,,,,,,,,,,,,,,,,,,,,,,,
,beach2,flow.Sequence,7,,,completion,53277.01499995231,235379.5,235381.673,235398.285,288675.2999999523,288675.7000000477,2023-12-04T10:18:32.405Z,288681.608,X9gPDhXrJN,full,klassikaal_3,652fe10cdc68ac1c61cf9cec,participant,D,,,,,,,,,,,,,,,,,,,,,,,,
,prepare,html.Page,8_0,,,form submission,27638.79199997615,288675.7999999523,288665.035,288681.608,316320.39999997616,316320.60000002384,2023-12-04T10:19:00.051Z,316322.61,X9gPDhXrJN,full,klassikaal_3,652fe10cdc68ac1c61cf9cec,participant,D,,,,,,,,,,,,,,,,,,,,,,,,
,street2-image,html.Page,8_1,,,form submission,13819.590000047698,316320.7999999523,316305.689,316322.61,330142.2000000477,330142.7000000477,2023-12-04T10:19:13.873Z,330142.792,X9gPDhXrJN,full,klassikaal_3,652fe10cdc68ac1c61cf9cec,participant,D,,,,,,,,,,,,,,,,,De rode strik van de beer,,,,,,,
,answer,html.Page,8_2,,,form submission,13978.607999976142,330142.89999997616,330126.495,330142.792,344121.39999997616,344121.60000002384,2023-12-04T10:19:27.852Z,344129.627,X9gPDhXrJN,full,klassikaal_3,652fe10cdc68ac1c61cf9cec,participant,D,,,,,,,,,,,,,,,,,,,,,,,,
,street2,flow.Sequence,8,,,completion,55439.79199997615,288675.7999999523,288665.035,288681.608,344121.39999997616,344121.7999999523,2023-12-04T10:19:27.852Z,344129.627,X9gPDhXrJN,full,klassikaal_3,652fe10cdc68ac1c61cf9cec,participant,D,,,,,,,,,,,,,,,,,,,,,,,,
,prepare,html.Page,9_0,,,form submission,30128.77299997618,344122,344113.005,344129.627,374258.39999997616,374258.7000000477,2023-12-04T10:19:57.986Z,374268.128,X9gPDhXrJN,full,klassikaal_3,652fe10cdc68ac1c61cf9cec,participant,D,,,,,,,,,,,,,,,,,,,,,,,,
,farm2-image,html.Page,9_1,,,form submission,19589.271999976132,374258.7999999523,374251.75,374268.128,393857.39999997616,393857.7000000477,2023-12-04T10:20:17.585Z,393867.733,X9gPDhXrJN,full,klassikaal_3,652fe10cdc68ac1c61cf9cec,participant,D,,,,,,,,,,,,,,,,,,,wasmand,,,,,
,answer,html.Page,9_2,,,form submission,7948.367000023834,393857.89999997616,393849.685,393867.733,401816.10000002384,401816.39999997616,2023-12-04T10:20:25.543Z,401825.501,X9gPDhXrJN,full,klassikaal_3,652fe10cdc68ac1c61cf9cec,participant,D,,,,,,,,,,,,,,,,,,,,,,,,
,farm2,flow.Sequence,9,,,completion,57686.47300002386,344121.89999997616,344113.005,344129.627,401816.10000002384,401816.60000002384,2023-12-04T10:20:25.543Z,401825.501,X9gPDhXrJN,full,klassikaal_3,652fe10cdc68ac1c61cf9cec,participant,D,,,,,,,,,,,,,,,,,,,,,,,,
,prepare,html.Page,10_0,,,form submission,20683.49900000001,401816.7000000477,401809.235,401825.501,422509,422509.2000000477,2023-12-04T10:20:46.236Z,422522.803,X9gPDhXrJN,full,klassikaal_3,652fe10cdc68ac1c61cf9cec,participant,D,,,,,,,,,,,,,,,,,,,,,,,,
,park1-image,html.Page,10_1,,,form submission,11309.196999999986,422509.39999997616,422506.131,422522.803,433832,433832.2999999523,2023-12-04T10:20:57.559Z,433845.434,X9gPDhXrJN,full,klassikaal_3,652fe10cdc68ac1c61cf9cec,participant,D,,,,,,,,,,,,,,,,,,,,,het kind op de fiets met zijwieltjes,,,
,answer,html.Page,10_2,,,form submission,27898.266000047675,433832.5,433829.29,433845.434,461743.7000000477,461744,2023-12-04T10:21:25.471Z,461752.625,X9gPDhXrJN,full,klassikaal_3,652fe10cdc68ac1c61cf9cec,participant,D,,,,,,,,,,,,,,,,,,,,,,,,
,park1,flow.Sequence,10,,,completion,59918.199000047694,401816.7000000477,401809.235,401825.501,461743.7000000477,461744.2999999523,2023-12-04T10:21:25.471Z,461752.625,X9gPDhXrJN,full,klassikaal_3,652fe10cdc68ac1c61cf9cec,participant,D,,,,,,,,,,,,,,,,,,,,,,,,
,prepare,html.Page,11_0,,,form submission,19153.875,461744.2999999523,461736.064,461752.625,480906.5,480906.7000000477,2023-12-04T10:21:44.634Z,480918.117,X9gPDhXrJN,full,klassikaal_3,652fe10cdc68ac1c61cf9cec,participant,D,,,,,,,,,,,,,,,,,,,,,,,,
,park2-image,html.Page,11_1,,,form submission,10214.583000047656,480906.89999997616,480901.506,480918.117,491132.7000000477,491133.10000002384,2023-12-04T10:21:54.860Z,491141.742,X9gPDhXrJN,full,klassikaal_3,652fe10cdc68ac1c61cf9cec,participant,D,,,,,,,,,,,,,,,,,,,,,,,de witte bloemen,
,answer,html.Page,11_2,,,form submission,22739.958000047656,491133.10000002384,491125.129,491141.742,513881.7000000477,513882,2023-12-04T10:22:17.612Z,513887.047,X9gPDhXrJN,full,klassikaal_3,652fe10cdc68ac1c61cf9cec,participant,D,,,,,,,,,,,,,,,,,,,,,,,,
,park2,flow.Sequence,11,,,completion,52129.075000047684,461744.2999999523,461736.064,461752.625,513881.7000000477,513882.39999997616,2023-12-04T10:22:17.612Z,513887.047,X9gPDhXrJN,full,klassikaal_3,652fe10cdc68ac1c61cf9cec,participant,D,,,,,,,,,,,,,,,,,,,,,,,,
,bedankt,html.Page,12,,,timeout,2997.25,513882.5,513870.438,513887.047,516867.909,516869.10000002384,2023-12-04T10:22:20.599Z,516884.297,X9gPDhXrJN,full,klassikaal_3,652fe10cdc68ac1c61cf9cec,participant,D,,,,,,,,,,,,,,,,,,,,,,,,
,root,flow.Sequence,,,,completion,514217.913,2662,2583.452,2649.996,516867.909,516869.7000000477,2023-12-04T10:22:20.599Z,516884.297,X9gPDhXrJN,full,klassikaal_3,652fe10cdc68ac1c61cf9cec,participant,D,,,,,,,,,,,,,,,,,,,,,,,,