meta,sender,sender_type,sender_id,Order,,ended_on,duration,time_run,time_render,time_show,time_end,time_commit,timestamp,time_switch,openLabId,type,task,project,status,code,confirmationCode,participant_L1,university_level,age,gender,gender_other,try-out_answer_L2,try-out_answer_L1,beach1_answer_L2,beach1_answer_L1,street1_answer_L2,street1_answer_L1,farm1_answer_L2,farm1_answer_L1,beach2_answer_L2,beach2_answer_L1,street2_answer_L2,street2_answer_L1,farm2_answer_L2,farm2_answer_L1,park1_answer_L2,park1_answer_L1,park2_answer_L2,park2_answer_L1
"{""labjs_version"":""20.2.4"",""labjs_build"":{""flavor"":""production"",""commit"":""f5b4a49f956347addd546a832a3327688c2c0fef""},""location"":""https://open-lab.online/test/klassikaal_3/6565d2abfa275e2b7bded20b"",""userAgent"":""Mozilla/5.0 (iPhone; CPU iPhone OS 16_5_1 like Mac OS X) AppleWebKit/605.1.15 (KHTML, like Gecko) Version/16.5.1 Mobile/15E148 Safari/604.1"",""platform"":""iPhone"",""language"":""it-IT"",""locale"":""it-IT"",""timeZone"":""Europe/Brussels"",""timezoneOffset"":-60,""screen_width"":414,""screen_height"":896,""scroll_width"":980,""scroll_height"":1836,""window_innerWidth"":980,""window_innerHeight"":1693,""devicePixelRatio"":2}",ID,html.Page,0,2,,form submission,31378,1523.0000000000002,1526,1533,32911,32912,2023-11-29T13:06:10.235Z,32927,hWeSgYDxpD,full,klassikaal_3,652fe10cdc68ac1c61cf9cec,participant,simone dbv,413657,,,,,,,,,,,,,,,,,,,,,,,
,language,html.Page,1,,,form submission,9645,32913.00000000001,32918,32927,42572,42572,2023-11-29T13:06:19.895Z,42582,hWeSgYDxpD,full,klassikaal_3,652fe10cdc68ac1c61cf9cec,participant,simone dbv,,"Nederlands en Engels ",BA,,,,,,,,,,,,,,,,,,,,,
,age-gender,html.Page,2,,,form submission,8850,42573,42577,42582,51432,51433,2023-11-29T13:06:28.755Z,51445,hWeSgYDxpD,full,klassikaal_3,652fe10cdc68ac1c61cf9cec,participant,simone dbv,,,,19,v,,,,,,,,,,,,,,,,,,,
,prepare,html.Page,3_0,,,form submission,151604,51433,51437,51445,203049,203050,2023-11-29T13:09:00.369Z,203131,hWeSgYDxpD,full,klassikaal_3,652fe10cdc68ac1c61cf9cec,participant,simone dbv,,,,,,,,,,,,,,,,,,,,,,,,
,try-out-image,html.Page,3_1,,,form submission,8472,203050,203054,203131,211603,211604,2023-11-29T13:09:08.923Z,211622,hWeSgYDxpD,full,klassikaal_3,652fe10cdc68ac1c61cf9cec,participant,simone dbv,,,,,,,"2 eenden ",,,,,,,,,,,,,,,,,
,answer,html.Page,3_2,,,form submission,6103,211604,211612,211622,217725,217725,2023-11-29T13:09:15.044Z,217739,hWeSgYDxpD,full,klassikaal_3,652fe10cdc68ac1c61cf9cec,participant,simone dbv,,,,,,,,,,,,,,,,,,,,,,,,
,try-out,flow.Sequence,3,,,completion,166280,51433,51437,51445,217725,217727,2023-11-29T13:09:15.046Z,217739,hWeSgYDxpD,full,klassikaal_3,652fe10cdc68ac1c61cf9cec,participant,simone dbv,,,,,,,,,,,,,,,,,,,,,,,,
,prepare,html.Page,4_0,,,form submission,26134.00000000003,217727,217730,217739,243873.00000000003,243874,2023-11-29T13:09:41.192Z,243957,hWeSgYDxpD,full,klassikaal_3,652fe10cdc68ac1c61cf9cec,participant,simone dbv,,,,,,,,,,,,,,,,,,,,,,,,
,beach1-image,html.Page,4_1,,,form submission,7317,243874,243879,243957,251274,251275,2023-11-29T13:09:48.593Z,251288,hWeSgYDxpD,full,klassikaal_3,652fe10cdc68ac1c61cf9cec,participant,simone dbv,,,,,,,,,"vislijn ",,,,,,,,,,,,,,,
,answer,html.Page,4_2,,,form submission,15143,251275,251278,251288,266431,266432,2023-11-29T13:10:03.749Z,266441,hWeSgYDxpD,full,klassikaal_3,652fe10cdc68ac1c61cf9cec,participant,simone dbv,,,,,,,,,,,,,,,,,,,,,,,,
,beach1,flow.Sequence,4,,,completion,48692,217727,217730,217739,266431,266432,2023-11-29T13:10:03.750Z,266441,hWeSgYDxpD,full,klassikaal_3,652fe10cdc68ac1c61cf9cec,participant,simone dbv,,,,,,,,,,,,,,,,,,,,,,,,
,prepare,html.Page,5_0,,,form submission,26949,266432,266434,266441,293390,293391,2023-11-29T13:10:30.708Z,293522,hWeSgYDxpD,full,klassikaal_3,652fe10cdc68ac1c61cf9cec,participant,simone dbv,,,,,,,,,,,,,,,,,,,,,,,,
,street1-image,html.Page,5_1,,,form submission,9889,293391,293394,293522,303411,303411,2023-11-29T13:10:40.728Z,303453,hWeSgYDxpD,full,klassikaal_3,652fe10cdc68ac1c61cf9cec,participant,simone dbv,,,,,,,,,,,"de luifel ",,,,,,,,,,,,,
,answer,html.Page,5_2,,,form submission,23168,303412.00000000006,303440,303453,326621,326622,2023-11-29T13:11:03.938Z,326636,hWeSgYDxpD,full,klassikaal_3,652fe10cdc68ac1c61cf9cec,participant,simone dbv,,,,,,,,,,,,,,,,,,,,,,,,
,street1,flow.Sequence,5,,,completion,60180,266432,266434,266441,326621,326622,2023-11-29T13:11:03.939Z,326636,hWeSgYDxpD,full,klassikaal_3,652fe10cdc68ac1c61cf9cec,participant,simone dbv,,,,,,,,,,,,,,,,,,,,,,,,
,prepare,html.Page,6_0,,,form submission,25309,326622,326625,326636,351945,351946,2023-11-29T13:11:29.262Z,351975,hWeSgYDxpD,full,klassikaal_3,652fe10cdc68ac1c61cf9cec,participant,simone dbv,,,,,,,,,,,,,,,,,,,,,,,,
,farm1-image,html.Page,6_1,,,form submission,7215,351946,351950,351975,359190,359190,2023-11-29T13:11:36.506Z,359202,hWeSgYDxpD,full,klassikaal_3,652fe10cdc68ac1c61cf9cec,participant,simone dbv,,,,,,,,,,,,,"de man zaagt niet ",,,,,,,,,,,
,answer,html.Page,6_2,,,form submission,21327,359191.00000000006,359194,359202,380529,380529,2023-11-29T13:11:57.844Z,380540,hWeSgYDxpD,full,klassikaal_3,652fe10cdc68ac1c61cf9cec,participant,simone dbv,,,,,,,,,,,,,,,,,,,,,,,,
,farm1,flow.Sequence,6,,,completion,53893,326622,326625,326636,380529,380530.00000000006,2023-11-29T13:11:57.845Z,380540,hWeSgYDxpD,full,klassikaal_3,652fe10cdc68ac1c61cf9cec,participant,simone dbv,,,,,,,,,,,,,,,,,,,,,,,,
,prepare,html.Page,7_0,,,form submission,21530,380530.00000000006,380532,380540,402070,402070,2023-11-29T13:12:19.385Z,402099,hWeSgYDxpD,full,klassikaal_3,652fe10cdc68ac1c61cf9cec,participant,simone dbv,,,,,,,,,,,,,,,,,,,,,,,,
,beach2-image,html.Page,7_1,,,form submission,6155,402071,402074,402099,408254,408255,2023-11-29T13:12:25.570Z,408267,hWeSgYDxpD,full,klassikaal_3,652fe10cdc68ac1c61cf9cec,participant,simone dbv,,,,,,,,,,,,,,,"de mannen die duwen ",,,,,,,,,
,answer,html.Page,7_2,,,form submission,25093,408255,408258,408267,433360,433361,2023-11-29T13:12:50.675Z,433370,hWeSgYDxpD,full,klassikaal_3,652fe10cdc68ac1c61cf9cec,participant,simone dbv,,,,,,,,,,,,,,,,,,,,,,,,
,beach2,flow.Sequence,7,,,completion,52820,380530.00000000006,380532,380540,433360,433362,2023-11-29T13:12:50.676Z,433370,hWeSgYDxpD,full,klassikaal_3,652fe10cdc68ac1c61cf9cec,participant,simone dbv,,,,,,,,,,,,,,,,,,,,,,,,
,prepare,html.Page,8_0,,,form submission,26414,433362,433364,433370,459784,459785,2023-11-29T13:13:17.098Z,459817,hWeSgYDxpD,full,klassikaal_3,652fe10cdc68ac1c61cf9cec,participant,simone dbv,,,,,,,,,,,,,,,,,,,,,,,,
,street2-image,html.Page,8_1,,,form submission,8777,459785,459797,459817,468594,468595,2023-11-29T13:13:25.908Z,468605,hWeSgYDxpD,full,klassikaal_3,652fe10cdc68ac1c61cf9cec,participant,simone dbv,,,,,,,,,,,,,,,,,"de rode strik op de beer ",,,,,,,
,answer,html.Page,8_2,,,form submission,19659,468595,468598,468605,488264,488265,2023-11-29T13:13:45.578Z,488282,hWeSgYDxpD,full,klassikaal_3,652fe10cdc68ac1c61cf9cec,participant,simone dbv,,,,,,,,,,,,,,,,,,,,,,,,
,street2,flow.Sequence,8,,,completion,54894,433362,433364,433370,488264,488266,2023-11-29T13:13:45.579Z,488282,hWeSgYDxpD,full,klassikaal_3,652fe10cdc68ac1c61cf9cec,participant,simone dbv,,,,,,,,,,,,,,,,,,,,,,,,
,prepare,html.Page,9_0,,,form submission,27476.00000000006,488266,488269,488282,515758.00000000006,515759,2023-11-29T13:14:13.071Z,515868,hWeSgYDxpD,full,klassikaal_3,652fe10cdc68ac1c61cf9cec,participant,simone dbv,,,,,,,,,,,,,,,,,,,,,,,,
,farm2-image,html.Page,9_1,,,form submission,8682,515759,515763,515868,524550,524551,2023-11-29T13:14:21.863Z,524564,hWeSgYDxpD,full,klassikaal_3,652fe10cdc68ac1c61cf9cec,participant,simone dbv,,,,,,,,,,,,,,,,,,,"de imker is niet in paniek ",,,,,
,answer,html.Page,9_2,,,form submission,20433,524551,524554,524564,544997,544997,2023-11-29T13:14:42.309Z,545013,hWeSgYDxpD,full,klassikaal_3,652fe10cdc68ac1c61cf9cec,participant,simone dbv,,,,,,,,,,,,,,,,,,,,,,,,
,farm2,flow.Sequence,9,,,completion,56715,488266,488269,488282,544997,544998,2023-11-29T13:14:42.310Z,545013,hWeSgYDxpD,full,klassikaal_3,652fe10cdc68ac1c61cf9cec,participant,simone dbv,,,,,,,,,,,,,,,,,,,,,,,,
,prepare,html.Page,10_0,,,form submission,20206,544998,545001,545013,565219,565220,2023-11-29T13:15:02.531Z,565326,hWeSgYDxpD,full,klassikaal_3,652fe10cdc68ac1c61cf9cec,participant,simone dbv,,,,,,,,,,,,,,,,,,,,,,,,
,park1-image,html.Page,10_1,,,form submission,6815,565220,565224,565326,572141,572142,2023-11-29T13:15:09.453Z,572152,hWeSgYDxpD,full,klassikaal_3,652fe10cdc68ac1c61cf9cec,participant,simone dbv,,,,,,,,,,,,,,,,,,,,,"geen fietsend kind ",,,
,answer,html.Page,10_2,,,form submission,18239,572142,572145,572152,590391,590392,2023-11-29T13:15:27.703Z,590401,hWeSgYDxpD,full,klassikaal_3,652fe10cdc68ac1c61cf9cec,participant,simone dbv,,,,,,,,,,,,,,,,,,,,,,,,
,park1,flow.Sequence,10,,,completion,45378,544998,545001,545013,590391,590392,2023-11-29T13:15:27.703Z,590401,hWeSgYDxpD,full,klassikaal_3,652fe10cdc68ac1c61cf9cec,participant,simone dbv,,,,,,,,,,,,,,,,,,,,,,,,
,prepare,html.Page,11_0,,,form submission,35229,590393,590395,590401,625630,625631,2023-11-29T13:16:02.941Z,625752,hWeSgYDxpD,full,klassikaal_3,652fe10cdc68ac1c61cf9cec,participant,simone dbv,,,,,,,,,,,,,,,,,,,,,,,,
,park2-image,html.Page,11_1,,,form submission,15119,625631,625635,625752,640871,640872,2023-11-29T13:16:18.182Z,640882,hWeSgYDxpD,full,klassikaal_3,652fe10cdc68ac1c61cf9cec,participant,simone dbv,,,,,,,,,,,,,,,,,,,,,,,"de tweede bloembak ",
,answer,html.Page,11_2,,,form submission,9587,640873,640876,640882,650469,650470,2023-11-29T13:16:27.779Z,650478,hWeSgYDxpD,full,klassikaal_3,652fe10cdc68ac1c61cf9cec,participant,simone dbv,,,,,,,,,,,,,,,,,,,,,,,,
,park2,flow.Sequence,11,,,completion,60068,590393,590395,590401,650469,650470,2023-11-29T13:16:27.780Z,650478,hWeSgYDxpD,full,klassikaal_3,652fe10cdc68ac1c61cf9cec,participant,simone dbv,,,,,,,,,,,,,,,,,,,,,,,,
,bedankt,html.Page,12,,,timeout,2999,650470,650472,650478,653460,653462,2023-11-29T13:16:30.772Z,653477,hWeSgYDxpD,full,klassikaal_3,652fe10cdc68ac1c61cf9cec,participant,simone dbv,,,,,,,,,,,,,,,,,,,,,,,,
,root,flow.Sequence,,,,completion,651927,1523.0000000000002,1526,1533,653460,653463,2023-11-29T13:16:30.773Z,653477,hWeSgYDxpD,full,klassikaal_3,652fe10cdc68ac1c61cf9cec,participant,simone dbv,,,,,,,,,,,,,,,,,,,,,,,,