meta,sender,sender_type,sender_id,Order,,ended_on,duration,time_run,time_render,time_show,time_end,time_commit,timestamp,time_switch,openLabId,type,task,project,status,code,confirmationCode,participant_L1,university_level,age,gender,gender_other,try-out_answer_L2,try-out_answer_L1,beach1_answer_L2,beach1_answer_L1,street1_answer_L2,street1_answer_L1,farm1_answer_L2,farm1_answer_L1,beach2_answer_L2,beach2_answer_L1,street2_answer_L2,street2_answer_L1,farm2_answer_L2,farm2_answer_L1,park1_answer_L2,park1_answer_L1,park2_answer_L2,park2_answer_L1
"{""labjs_version"":""20.2.4"",""labjs_build"":{""flavor"":""production"",""commit"":""f5b4a49f956347addd546a832a3327688c2c0fef""},""location"":""https://open-lab.online/test/klassikaal_3/65673731fa275e2b7bdedd7b"",""userAgent"":""Mozilla/5.0 (Windows NT 10.0; Win64; x64) AppleWebKit/537.36 (KHTML, like Gecko) Chrome/119.0.0.0 Safari/537.36"",""platform"":""Win32"",""language"":""nl-NL"",""locale"":""nl"",""timeZone"":""Europe/Brussels"",""timezoneOffset"":-60,""screen_width"":1536,""screen_height"":864,""scroll_width"":1536,""scroll_height"":691,""window_innerWidth"":1536,""window_innerHeight"":739,""devicePixelRatio"":1.25}",ID,html.Page,0,2,,form submission,3749.514999988079,2097.899999976158,2026.106,2092.685,5842.199999988079,5842.5,2023-11-29T13:05:59.873Z,5842.979,EZ92QXzTLg,full,klassikaal_3,652fe10cdc68ac1c61cf9cec,participant,pseudoniem naar keuze,434989,,,,,,,,,,,,,,,,,,,,,,,
,language,html.Page,1,,,form submission,10072.920999976159,5842.699999988079,5826.58,5842.979,15915.899999976158,15916.399999976158,2023-11-29T13:06:09.946Z,15926.999,EZ92QXzTLg,full,klassikaal_3,652fe10cdc68ac1c61cf9cec,participant,pseudoniem naar keuze,,Nederlands,BA,,,,,,,,,,,,,,,,,,,,,
,age-gender,html.Page,2,,,form submission,8414.600999964237,15916.5,15910.453,15926.999,24341.599999964237,24341.899999976158,2023-11-29T13:06:18.372Z,24343.94,EZ92QXzTLg,full,klassikaal_3,652fe10cdc68ac1c61cf9cec,participant,pseudoniem naar keuze,,,,22,m,,,,,,,,,,,,,,,,,,,
,prepare,html.Page,3_0,,,form submission,163326.3599999523,24342,24327.589,24343.94,187670.29999995232,187670.69999998808,2023-11-29T13:09:01.701Z,187686.927,EZ92QXzTLg,full,klassikaal_3,652fe10cdc68ac1c61cf9cec,participant,pseudoniem naar keuze,,,,,,,,,,,,,,,,,,,,,,,,
,try-out-image,html.Page,3_1,,,form submission,8196.87299995232,187670.89999997616,187653.234,187686.927,195883.79999995232,195884.59999996424,2023-11-29T13:09:09.915Z,195887.113,EZ92QXzTLg,full,klassikaal_3,652fe10cdc68ac1c61cf9cec,participant,pseudoniem naar keuze,,,,,,,de twee eenden,,,,,,,,,,,,,,,,,
,answer,html.Page,3_2,,,form submission,36256.686999952304,195884.89999997616,195870.503,195887.113,232143.79999995232,232144.59999996424,2023-11-29T13:09:46.175Z,232155.819,EZ92QXzTLg,full,klassikaal_3,652fe10cdc68ac1c61cf9cec,participant,pseudoniem naar keuze,,,,,,,,,,,,,,,,,,,,,,,,
,try-out,flow.Sequence,3,,,completion,207799.8599999523,24342,24327.589,24343.94,232143.79999995232,232150.79999995232,2023-11-29T13:09:46.181Z,232155.819,EZ92QXzTLg,full,klassikaal_3,652fe10cdc68ac1c61cf9cec,participant,pseudoniem naar keuze,,,,,,,,,,,,,,,,,,,,,,,,
,prepare,html.Page,4_0,,,form submission,970.9809999523277,232151.29999995232,232139.338,232155.819,233126.79999995232,233127.69999998808,2023-11-29T13:09:47.158Z,233139.198,EZ92QXzTLg,full,klassikaal_3,652fe10cdc68ac1c61cf9cec,participant,pseudoniem naar keuze,,,,,,,,,,,,,,,,,,,,,,,,
,beach1-image,html.Page,4_1,,,form submission,13305.701999976154,233128.39999997616,233122.801,233139.198,246444.89999997616,246445.39999997616,2023-11-29T13:10:00.476Z,246456.53,EZ92QXzTLg,full,klassikaal_3,652fe10cdc68ac1c61cf9cec,participant,pseudoniem naar keuze,,,,,,,,,hengel,,,,,,,,,,,,,,,
,answer,html.Page,4_2,,,form submission,28213.56999996424,246445.69999998808,246440.026,246456.53,274670.09999996424,274671.2999999523,2023-11-29T13:10:28.702Z,274674.976,EZ92QXzTLg,full,klassikaal_3,652fe10cdc68ac1c61cf9cec,participant,pseudoniem naar keuze,,,,,,,,,,,,,,,,,,,,,,,,
,beach1,flow.Sequence,4,,,completion,42514.28099996425,232151.09999996424,232139.338,232155.819,274670.09999996424,274672.1999999881,2023-11-29T13:10:28.703Z,274674.976,EZ92QXzTLg,full,klassikaal_3,652fe10cdc68ac1c61cf9cec,participant,pseudoniem naar keuze,,,,,,,,,,,,,,,,,,,,,,,,
,prepare,html.Page,5_0,,,form submission,1117.0239999999758,274672.6999999881,274658.305,274674.976,275792,275793.09999996424,2023-11-29T13:10:29.823Z,275809.237,EZ92QXzTLg,full,klassikaal_3,652fe10cdc68ac1c61cf9cec,participant,pseudoniem naar keuze,,,,,,,,,,,,,,,,,,,,,,,,
,street1-image,html.Page,5_1,,,form submission,12331.562999952293,275793.59999996424,275775.002,275809.237,288140.7999999523,288141.09999996424,2023-11-29T13:10:42.171Z,288142.178,EZ92QXzTLg,full,klassikaal_3,652fe10cdc68ac1c61cf9cec,participant,pseudoniem naar keuze,,,,,,,,,,,luifel,,,,,,,,,,,,,
,answer,html.Page,5_2,,,form submission,4649.221999976144,288141.1999999881,288125.574,288142.178,292791.39999997616,292792.1999999881,2023-11-29T13:10:46.823Z,292792.663,EZ92QXzTLg,full,klassikaal_3,652fe10cdc68ac1c61cf9cec,participant,pseudoniem naar keuze,,,,,,,,,,,,,,,,,,,,,,,,
,street1,flow.Sequence,5,,,completion,18116.423999976134,274672.5,274658.305,274674.976,292791.39999997616,292792.7999999523,2023-11-29T13:10:46.823Z,292792.663,EZ92QXzTLg,full,klassikaal_3,652fe10cdc68ac1c61cf9cec,participant,pseudoniem naar keuze,,,,,,,,,,,,,,,,,,,,,,,,
,prepare,html.Page,6_0,,,form submission,38901.636999952316,292793.1999999881,292776.278,292792.663,331694.2999999523,331695,2023-11-29T13:11:25.726Z,331694.747,EZ92QXzTLg,full,klassikaal_3,652fe10cdc68ac1c61cf9cec,participant,pseudoniem naar keuze,,,,,,,,,,,,,,,,,,,,,,,,
,farm1-image,html.Page,6_1,,,form submission,8370.052999952342,331695.39999997616,331678.34,331694.747,340064.7999999523,340065.1999999881,2023-11-29T13:11:34.096Z,340078.614,EZ92QXzTLg,full,klassikaal_3,652fe10cdc68ac1c61cf9cec,participant,pseudoniem naar keuze,,,,,,,,,,,,,de kettingzaag,,,,,,,,,,,
,answer,html.Page,6_2,,,form submission,4534.085999988078,340065.39999997616,340061.982,340078.614,344612.6999999881,344613.6999999881,2023-11-29T13:11:38.644Z,344629.312,EZ92QXzTLg,full,klassikaal_3,652fe10cdc68ac1c61cf9cec,participant,pseudoniem naar keuze,,,,,,,,,,,,,,,,,,,,,,,,
,farm1,flow.Sequence,6,,,completion,51820.03699998808,292793.09999996424,292776.278,292792.663,344612.6999999881,344614.2999999523,2023-11-29T13:11:38.645Z,344629.312,EZ92QXzTLg,full,klassikaal_3,652fe10cdc68ac1c61cf9cec,participant,pseudoniem naar keuze,,,,,,,,,,,,,,,,,,,,,,,,
,prepare,html.Page,7_0,,,form submission,39268.48799995234,344614.6999999881,344595.865,344629.312,383897.7999999523,383898.6999999881,2023-11-29T13:12:17.929Z,383915.435,EZ92QXzTLg,full,klassikaal_3,652fe10cdc68ac1c61cf9cec,participant,pseudoniem naar keuze,,,,,,,,,,,,,,,,,,,,,,,,
,beach2-image,html.Page,7_1,,,form submission,16608.26499998808,383898.89999997616,383881.257,383915.435,400523.6999999881,400524.5,2023-11-29T13:12:34.555Z,400531.977,EZ92QXzTLg,full,klassikaal_3,652fe10cdc68ac1c61cf9cec,participant,pseudoniem naar keuze,,,,,,,,,,,,,,,de twee mannen die de auto duwen,,,,,,,,,
,answer,html.Page,7_2,,,form submission,10073.122999964224,400524.7999999523,400515.465,400531.977,410605.09999996424,410605.6999999881,2023-11-29T13:12:44.636Z,410615.924,EZ92QXzTLg,full,klassikaal_3,652fe10cdc68ac1c61cf9cec,participant,pseudoniem naar keuze,,,,,,,,,,,,,,,,,,,,,,,,
,beach2,flow.Sequence,7,,,completion,65975.78799996426,344614.5,344595.865,344629.312,410605.09999996424,410606.1999999881,2023-11-29T13:12:44.637Z,410615.924,EZ92QXzTLg,full,klassikaal_3,652fe10cdc68ac1c61cf9cec,participant,pseudoniem naar keuze,,,,,,,,,,,,,,,,,,,,,,,,
,prepare,html.Page,8_0,,,form submission,32975.77599998808,410606.5,410599.36,410615.924,443591.6999999881,443592.39999997616,2023-11-29T13:13:17.623Z,443601.144,EZ92QXzTLg,full,klassikaal_3,652fe10cdc68ac1c61cf9cec,participant,pseudoniem naar keuze,,,,,,,,,,,,,,,,,,,,,,,,
,street2-image,html.Page,8_1,,,form submission,8180.755999976187,443592.59999996424,443584.49,443601.144,451781.89999997616,451783.09999996424,2023-11-29T13:13:25.813Z,451784.901,EZ92QXzTLg,full,klassikaal_3,652fe10cdc68ac1c61cf9cec,participant,pseudoniem naar keuze,,,,,,,,,,,,,,,,,de rode strik van de beer,,,,,,,
,answer,html.Page,8_2,,,form submission,20463.898999952304,451783.5,451768.513,451784.901,472248.7999999523,472249.39999997616,2023-11-29T13:13:46.280Z,472252.796,EZ92QXzTLg,full,klassikaal_3,652fe10cdc68ac1c61cf9cec,participant,pseudoniem naar keuze,,,,,,,,,,,,,,,,,,,,,,,,
,street2,flow.Sequence,8,,,completion,61632.87599995232,410606.5,410599.36,410615.924,472248.7999999523,472249.89999997616,2023-11-29T13:13:46.280Z,472252.796,EZ92QXzTLg,full,klassikaal_3,652fe10cdc68ac1c61cf9cec,participant,pseudoniem naar keuze,,,,,,,,,,,,,,,,,,,,,,,,
,prepare,html.Page,9_0,,,form submission,28855.003999952343,472250.1999999881,472236.185,472252.796,501107.7999999523,501108.5,2023-11-29T13:14:15.139Z,501121.123,EZ92QXzTLg,full,klassikaal_3,652fe10cdc68ac1c61cf9cec,participant,pseudoniem naar keuze,,,,,,,,,,,,,,,,,,,,,,,,
,farm2-image,html.Page,9_1,,,form submission,6414.676999952295,501108.7999999523,501104.552,501121.123,507535.7999999523,507536.1999999881,2023-11-29T13:14:21.567Z,507538.014,EZ92QXzTLg,full,klassikaal_3,652fe10cdc68ac1c61cf9cec,participant,pseudoniem naar keuze,,,,,,,,,,,,,,,,,,,de imker is niet in paniek,,,,,
,answer,html.Page,9_2,,,form submission,2532.7859999522916,507536.2999999523,507521.445,507538.014,510070.7999999523,510071.6999999881,2023-11-29T13:14:24.102Z,510071.59,EZ92QXzTLg,full,klassikaal_3,652fe10cdc68ac1c61cf9cec,participant,pseudoniem naar keuze,,,,,,,,,,,,,,,,,,,,,,,,
,farm2,flow.Sequence,9,,,completion,37818.00399995234,472250.09999996424,472236.185,472252.796,510070.7999999523,510072.39999997616,2023-11-29T13:14:24.103Z,510071.59,EZ92QXzTLg,full,klassikaal_3,652fe10cdc68ac1c61cf9cec,participant,pseudoniem naar keuze,,,,,,,,,,,,,,,,,,,,,,,,
,prepare,html.Page,10_0,,,form submission,39764.10999998805,510072.7999999523,510055.054,510071.59,549835.6999999881,549836.5,2023-11-29T13:15:03.867Z,549840.47,EZ92QXzTLg,full,klassikaal_3,652fe10cdc68ac1c61cf9cec,participant,pseudoniem naar keuze,,,,,,,,,,,,,,,,,,,,,,,,
,park1-image,html.Page,10_1,,,form submission,8950.030000000028,549836.7999999523,549824.058,549840.47,558790.5,558791.5999999642,2023-11-29T13:15:12.822Z,558790.99,EZ92QXzTLg,full,klassikaal_3,652fe10cdc68ac1c61cf9cec,participant,pseudoniem naar keuze,,,,,,,,,,,,,,,,,,,,,het kindje op de fiets,,,
,answer,html.Page,10_2,,,form submission,2833.0100000000093,558792.0999999642,558774.242,558790.99,561624,561624.7999999523,2023-11-29T13:15:15.655Z,561642.3,EZ92QXzTLg,full,klassikaal_3,652fe10cdc68ac1c61cf9cec,participant,pseudoniem naar keuze,,,,,,,,,,,,,,,,,,,,,,,,
,park1,flow.Sequence,10,,,completion,51552.409999999974,510072.6999999881,510055.054,510071.59,561624,561625.3999999762,2023-11-29T13:15:15.656Z,561642.3,EZ92QXzTLg,full,klassikaal_3,652fe10cdc68ac1c61cf9cec,participant,pseudoniem naar keuze,,,,,,,,,,,,,,,,,,,,,,,,
,prepare,html.Page,11_0,,,form submission,52467.39999998803,561625.7999999523,561608.099,561642.3,614109.6999999881,614110.5999999642,2023-11-29T13:16:08.141Z,614110.837,EZ92QXzTLg,full,klassikaal_3,652fe10cdc68ac1c61cf9cec,participant,pseudoniem naar keuze,,,,,,,,,,,,,,,,,,,,,,,,
,park2-image,html.Page,11_1,,,form submission,8069.362999988021,614111.0999999642,614094.191,614110.837,622180.1999999881,622181,2023-11-29T13:16:16.211Z,622194.594,EZ92QXzTLg,full,klassikaal_3,652fe10cdc68ac1c61cf9cec,participant,pseudoniem naar keuze,,,,,,,,,,,,,,,,,,,,,,,een van de bloembakken,
,answer,html.Page,11_2,,,form submission,6312.305999976117,622181.3999999762,622178.049,622194.594,628506.8999999762,628507.6999999881,2023-11-29T13:16:22.538Z,628511.655,EZ92QXzTLg,full,klassikaal_3,652fe10cdc68ac1c61cf9cec,participant,pseudoniem naar keuze,,,,,,,,,,,,,,,,,,,,,,,,
,park2,flow.Sequence,11,,,completion,66864.59999997611,561625.6999999881,561608.099,561642.3,628506.8999999762,628508.3999999762,2023-11-29T13:16:22.539Z,628511.655,EZ92QXzTLg,full,klassikaal_3,652fe10cdc68ac1c61cf9cec,participant,pseudoniem naar keuze,,,,,,,,,,,,,,,,,,,,,,,,
,bedankt,html.Page,12,,,timeout,3000.322999999975,628508.6999999881,628495.047,628511.655,631495.258,631497.3999999762,2023-11-29T13:16:25.528Z,631511.978,EZ92QXzTLg,full,klassikaal_3,652fe10cdc68ac1c61cf9cec,participant,pseudoniem naar keuze,,,,,,,,,,,,,,,,,,,,,,,,
,root,flow.Sequence,,,,completion,629402.573,2097.699999988079,2026.106,2092.685,631495.258,631498,2023-11-29T13:16:25.528Z,631511.978,EZ92QXzTLg,full,klassikaal_3,652fe10cdc68ac1c61cf9cec,participant,pseudoniem naar keuze,,,,,,,,,,,,,,,,,,,,,,,,