meta,sender,sender_type,sender_id,Order,,ended_on,duration,time_run,time_render,time_show,time_end,time_commit,timestamp,time_switch,openLabId,type,task,project,status,code,confirmationCode,participant_L1,university_level,age,gender,gender_other,try-out_answer_L2,try-out_answer_L1,beach1_answer_L2,beach1_answer_L1,street1_answer_L2,street1_answer_L1,farm1_answer_L2,farm1_answer_L1,beach2_answer_L2,beach2_answer_L1,street2_answer_L2,street2_answer_L1,farm2_answer_L2,farm2_answer_L1,park1_answer_L2,park1_answer_L1,park2_answer_L2,park2_answer_L1
"{""labjs_version"":""20.2.4"",""labjs_build"":{""flavor"":""production"",""commit"":""f5b4a49f956347addd546a832a3327688c2c0fef""},""location"":""https://open-lab.online/test/klassikaal_3/65673718fa275e2b7bdedd6d"",""userAgent"":""Mozilla/5.0 (Windows NT 10.0; Win64; x64) AppleWebKit/537.36 (KHTML, like Gecko) Chrome/119.0.0.0 Safari/537.36"",""platform"":""Win32"",""language"":""nl-NL"",""locale"":""en-GB"",""timeZone"":""Europe/Brussels"",""timezoneOffset"":-60,""screen_width"":1280,""screen_height"":720,""scroll_width"":1280,""scroll_height"":595,""window_innerWidth"":1280,""window_innerHeight"":595,""devicePixelRatio"":1.5}",ID,html.Page,0,2,,form submission,3497.2290000089406,1596.2999999970198,1553.089,1586.371,5083.600000008941,5084.4000000059605,2023-11-29T13:05:34.123Z,5086.544,pAK1noX_i9,full,klassikaal_3,652fe10cdc68ac1c61cf9cec,participant,emielcl1,559168,,,,,,,,,,,,,,,,,,,,,,,
,language,html.Page,1,,,form submission,28352.15600000298,5084.70000000298,5070.092,5086.544,33438.70000000298,33439.10000000894,2023-11-29T13:06:02.478Z,33453.238,pAK1noX_i9,full,klassikaal_3,652fe10cdc68ac1c61cf9cec,participant,emielcl1,,"Nederlands ",BA,,,,,,,,,,,,,,,,,,,,,
,age-gender,html.Page,2,,,form submission,18187.462000002983,33439.40000000596,33436.75,33453.238,51640.70000000298,51641.10000000894,2023-11-29T13:06:20.675Z,51653.263,pAK1noX_i9,full,klassikaal_3,652fe10cdc68ac1c61cf9cec,participant,emielcl1,,,,19,m,,,,,,,,,,,,,,,,,,,
,prepare,html.Page,3_0,,,form submission,160672.63700000595,51641.40000000596,51636.631,51653.263,212325.90000000596,212326.20000000298,2023-11-29T13:09:01.357Z,212336.287,pAK1noX_i9,full,klassikaal_3,652fe10cdc68ac1c61cf9cec,participant,emielcl1,,,,,,,,,,,,,,,,,,,,,,,,
,try-out-image,html.Page,3_1,,,form submission,8377.712999999989,212326.5,212319.879,212336.287,220714,220714.29999999702,2023-11-29T13:09:09.745Z,220719.56,pAK1noX_i9,full,klassikaal_3,652fe10cdc68ac1c61cf9cec,participant,emielcl1,,,,,,,"eenden ",,,,,,,,,,,,,,,,,
,answer,html.Page,3_2,,,form submission,4948.739999997022,220714.5,220703.079,220719.56,225668.29999999702,225668.5,2023-11-29T13:09:14.700Z,225669.68,pAK1noX_i9,full,klassikaal_3,652fe10cdc68ac1c61cf9cec,participant,emielcl1,,,,,,,,,,,,,,,,,,,,,,,,
,try-out,flow.Sequence,3,,,completion,174015.036999997,51641.29999999702,51636.631,51653.263,225668.29999999702,225671.70000000298,2023-11-29T13:09:14.703Z,225669.68,pAK1noX_i9,full,klassikaal_3,652fe10cdc68ac1c61cf9cec,participant,emielcl1,,,,,,,,,,,,,,,,,,,,,,,,
,prepare,html.Page,4_0,,,form submission,26858.119999997027,225671.90000000596,225653.282,225669.68,252527.79999999702,252528.20000000298,2023-11-29T13:09:41.559Z,252536.258,pAK1noX_i9,full,klassikaal_3,652fe10cdc68ac1c61cf9cec,participant,emielcl1,,,,,,,,,,,,,,,,,,,,,,,,
,beach1-image,html.Page,4_1,,,form submission,22408.14200000596,252528.40000000596,252519.916,252536.258,274944.40000000596,274944.700000003,2023-11-29T13:10:03.979Z,274952.94,pAK1noX_i9,full,klassikaal_3,652fe10cdc68ac1c61cf9cec,participant,emielcl1,,,,,,,,,visnet,,,,,,,,,,,,,,,
,answer,html.Page,4_2,,,form submission,5337.160000008938,274944.799999997,274936.538,274952.94,280290.10000000894,280290.5,2023-11-29T13:10:09.325Z,280303.078,pAK1noX_i9,full,klassikaal_3,652fe10cdc68ac1c61cf9cec,participant,emielcl1,,,,,,,,,,,,,,,,,,,,,,,,
,beach1,flow.Sequence,4,,,completion,54620.42000000895,225671.90000000596,225653.282,225669.68,280290.10000000894,280290.799999997,2023-11-29T13:10:09.325Z,280303.078,pAK1noX_i9,full,klassikaal_3,652fe10cdc68ac1c61cf9cec,participant,emielcl1,,,,,,,,,,,,,,,,,,,,,,,,
,prepare,html.Page,5_0,,,form submission,26604.52200000896,280291,280286.362,280303.078,306907.60000000894,306907.90000000596,2023-11-29T13:10:35.942Z,306919.585,pAK1noX_i9,full,klassikaal_3,652fe10cdc68ac1c61cf9cec,participant,emielcl1,,,,,,,,,,,,,,,,,,,,,,,,
,street1-image,html.Page,5_1,,,form submission,8126.914999999979,306908.10000000894,306903.149,306919.585,315046.5,315046.90000000596,2023-11-29T13:10:44.081Z,315052.916,pAK1noX_i9,full,klassikaal_3,652fe10cdc68ac1c61cf9cec,participant,emielcl1,,,,,,,,,,,dierenwinkel,,,,,,,,,,,,,
,answer,html.Page,5_2,,,form submission,12373.883999996993,315047.10000000894,315036.347,315052.916,327426.799999997,327427.299999997,2023-11-29T13:10:56.461Z,327436.294,pAK1noX_i9,full,klassikaal_3,652fe10cdc68ac1c61cf9cec,participant,emielcl1,,,,,,,,,,,,,,,,,,,,,,,,
,street1,flow.Sequence,5,,,completion,47123.72199999704,280291,280286.362,280303.078,327426.799999997,327427.5,2023-11-29T13:10:56.462Z,327436.294,pAK1noX_i9,full,klassikaal_3,652fe10cdc68ac1c61cf9cec,participant,emielcl1,,,,,,,,,,,,,,,,,,,,,,,,
,prepare,html.Page,6_0,,,form submission,32100.606000005966,327427.700000003,327419.586,327436.294,359536.90000000596,359537.10000000894,2023-11-29T13:11:28.574Z,359552.904,pAK1noX_i9,full,klassikaal_3,652fe10cdc68ac1c61cf9cec,participant,emielcl1,,,,,,,,,,,,,,,,,,,,,,,,
,farm1-image,html.Page,6_1,,,form submission,8614.99600000598,359537.299999997,359536.389,359552.904,368167.90000000596,368168.200000003,2023-11-29T13:11:37.205Z,368169.413,pAK1noX_i9,full,klassikaal_3,652fe10cdc68ac1c61cf9cec,participant,emielcl1,,,,,,,,,,,,,"de kettingzaag ",,,,,,,,,,,
,answer,html.Page,6_2,,,form submission,3790.3869999970193,368168.5,368153.101,368169.413,371959.799999997,371960.10000000894,2023-11-29T13:11:40.997Z,371969.782,pAK1noX_i9,full,klassikaal_3,652fe10cdc68ac1c61cf9cec,participant,emielcl1,,,,,,,,,,,,,,,,,,,,,,,,
,farm1,flow.Sequence,6,,,completion,44523.505999997025,327427.60000000894,327419.586,327436.294,371959.799999997,371960.299999997,2023-11-29T13:11:40.997Z,371969.782,pAK1noX_i9,full,klassikaal_3,652fe10cdc68ac1c61cf9cec,participant,emielcl1,,,,,,,,,,,,,,,,,,,,,,,,
,prepare,html.Page,7_0,,,form submission,41109.21799999999,371960.5,371953.173,371969.782,413079,413079.40000000596,2023-11-29T13:12:22.116Z,413086.214,pAK1noX_i9,full,klassikaal_3,652fe10cdc68ac1c61cf9cec,participant,emielcl1,,,,,,,,,,,,,,,,,,,,,,,,
,beach2-image,html.Page,7_1,,,form submission,19063.286000000022,413079.5,413069.761,413086.214,432149.5,432149.90000000596,2023-11-29T13:12:41.186Z,432152.85,pAK1noX_i9,full,klassikaal_3,652fe10cdc68ac1c61cf9cec,participant,emielcl1,,,,,,,,,,,,,,,de 2 mannen die de auto uit het zand proberen te halen ontbreken,,,,,,,,,
,answer,html.Page,7_2,,,form submission,3855.5500000059837,432150.10000000894,432136.401,432152.85,436008.40000000596,436008.700000003,2023-11-29T13:12:45.045Z,436019.762,pAK1noX_i9,full,klassikaal_3,652fe10cdc68ac1c61cf9cec,participant,emielcl1,,,,,,,,,,,,,,,,,,,,,,,,
,beach2,flow.Sequence,7,,,completion,64038.618000005954,371960.40000000596,371953.173,371969.782,436008.40000000596,436008.799999997,2023-11-29T13:12:45.045Z,436019.762,pAK1noX_i9,full,klassikaal_3,652fe10cdc68ac1c61cf9cec,participant,emielcl1,,,,,,,,,,,,,,,,,,,,,,,,
,prepare,html.Page,8_0,,,form submission,35663.63800000597,436009,436003.135,436019.762,471683.40000000596,471683.60000000894,2023-11-29T13:13:20.720Z,471702.796,pAK1noX_i9,full,klassikaal_3,652fe10cdc68ac1c61cf9cec,participant,emielcl1,,,,,,,,,,,,,,,,,,,,,,,,
,street2-image,html.Page,8_1,,,form submission,14055.704000000027,471683.799999997,471686.086,471702.796,485758.5,485758.90000000596,2023-11-29T13:13:34.794Z,485769.416,pAK1noX_i9,full,klassikaal_3,652fe10cdc68ac1c61cf9cec,participant,emielcl1,,,,,,,,,,,,,,,,,"de grote rode strik ontbreekt ",,,,,,,
,answer,html.Page,8_2,,,form submission,1933.6840000089142,485759.200000003,485752.772,485769.416,487703.10000000894,487703.299999997,2023-11-29T13:13:36.738Z,487719.68,pAK1noX_i9,full,klassikaal_3,652fe10cdc68ac1c61cf9cec,participant,emielcl1,,,,,,,,,,,,,,,,,,,,,,,,
,street2,flow.Sequence,8,,,completion,51683.33800000895,436009,436003.135,436019.762,487703.10000000894,487703.60000000894,2023-11-29T13:13:36.738Z,487719.68,pAK1noX_i9,full,klassikaal_3,652fe10cdc68ac1c61cf9cec,participant,emielcl1,,,,,,,,,,,,,,,,,,,,,,,,
,prepare,html.Page,9_0,,,form submission,45822.32000000001,487703.799999997,487686.393,487719.68,533542,533542.299999997,2023-11-29T13:14:22.577Z,533552.689,pAK1noX_i9,full,klassikaal_3,652fe10cdc68ac1c61cf9cec,participant,emielcl1,,,,,,,,,,,,,,,,,,,,,,,,
,farm2-image,html.Page,9_1,,,form submission,6793.110999997007,533542.5,533536.175,533552.689,540345.799999997,540346.1000000089,2023-11-29T13:14:29.380Z,540352.745,pAK1noX_i9,full,klassikaal_3,652fe10cdc68ac1c61cf9cec,participant,emielcl1,,,,,,,,,,,,,,,,,,,de imker is niet in paniek,,,,,
,answer,html.Page,9_2,,,form submission,1711.2550000000047,540346.400000006,540336.265,540352.745,542064,542064.299999997,2023-11-29T13:14:31.098Z,542069.28,pAK1noX_i9,full,klassikaal_3,652fe10cdc68ac1c61cf9cec,participant,emielcl1,,,,,,,,,,,,,,,,,,,,,,,,
,farm2,flow.Sequence,9,,,completion,54344.32000000001,487703.700000003,487686.393,487719.68,542064,542064.5,2023-11-29T13:14:31.099Z,542069.28,pAK1noX_i9,full,klassikaal_3,652fe10cdc68ac1c61cf9cec,participant,emielcl1,,,,,,,,,,,,,,,,,,,,,,,,
,prepare,html.Page,10_0,,,form submission,31271.719999999972,542064.6000000089,542053,542069.28,573341,573341.400000006,2023-11-29T13:15:02.376Z,573352.629,pAK1noX_i9,full,klassikaal_3,652fe10cdc68ac1c61cf9cec,participant,emielcl1,,,,,,,,,,,,,,,,,,,,,,,,
,park1-image,html.Page,10_1,,,form submission,10085.471000008984,573341.5,573336.114,573352.629,583438.1000000089,583438.5,2023-11-29T13:15:12.473Z,583452.792,pAK1noX_i9,full,klassikaal_3,652fe10cdc68ac1c61cf9cec,participant,emielcl1,,,,,,,,,,,,,,,,,,,,,"het kind op de fiets ontbreekt ",,,
,answer,html.Page,10_2,,,form submission,1531.4080000029644,583438.6000000089,583436.305,583452.792,584984.200000003,584984.5,2023-11-29T13:15:14.019Z,584985.996,pAK1noX_i9,full,klassikaal_3,652fe10cdc68ac1c61cf9cec,participant,emielcl1,,,,,,,,,,,,,,,,,,,,,,,,
,park1,flow.Sequence,10,,,completion,42914.92000000295,542064.6000000089,542053,542069.28,584984.200000003,584984.700000003,2023-11-29T13:15:14.019Z,584985.996,pAK1noX_i9,full,klassikaal_3,652fe10cdc68ac1c61cf9cec,participant,emielcl1,,,,,,,,,,,,,,,,,,,,,,,,
,prepare,html.Page,11_0,,,form submission,46891.30399999698,584984.900000006,584969.649,584985.996,631877.299999997,631877.700000003,2023-11-29T13:16:00.916Z,631902.675,pAK1noX_i9,full,klassikaal_3,652fe10cdc68ac1c61cf9cec,participant,emielcl1,,,,,,,,,,,,,,,,,,,,,,,,
,park2-image,html.Page,11_1,,,form submission,16095.925000008894,631877.799999997,631886.132,631902.675,647998.6000000089,647999,2023-11-29T13:16:17.037Z,648002.535,pAK1noX_i9,full,klassikaal_3,652fe10cdc68ac1c61cf9cec,participant,emielcl1,,,,,,,,,,,,,,,,,,,,,,,"de witte bloemen ",
,answer,html.Page,11_2,,,form submission,12210.865000005928,647999.1000000089,647986.212,648002.535,660213.400000006,660213.6000000089,2023-11-29T13:16:29.252Z,660219.412,pAK1noX_i9,full,klassikaal_3,652fe10cdc68ac1c61cf9cec,participant,emielcl1,,,,,,,,,,,,,,,,,,,,,,,,
,park2,flow.Sequence,11,,,completion,75227.40400000592,584984.799999997,584969.649,584985.996,660213.400000006,660213.900000006,2023-11-29T13:16:29.252Z,660219.412,pAK1noX_i9,full,klassikaal_3,652fe10cdc68ac1c61cf9cec,participant,emielcl1,,,,,,,,,,,,,,,,,,,,,,,,
,bedankt,html.Page,12,,,timeout,3000.1309999999357,660214,660202.764,660219.412,663202.883,663204.200000003,2023-11-29T13:16:32.242Z,663219.543,pAK1noX_i9,full,klassikaal_3,652fe10cdc68ac1c61cf9cec,participant,emielcl1,,,,,,,,,,,,,,,,,,,,,,,,
,root,flow.Sequence,,,,completion,661616.512,1596.2000000029802,1553.089,1586.371,663202.883,663204.6000000089,2023-11-29T13:16:32.243Z,663219.543,pAK1noX_i9,full,klassikaal_3,652fe10cdc68ac1c61cf9cec,participant,emielcl1,,,,,,,,,,,,,,,,,,,,,,,,