meta,sender,sender_type,sender_id,Order,,ended_on,duration,time_run,time_render,time_show,time_end,time_commit,timestamp,time_switch,openLabId,type,task,project,status,code,confirmationCode,participant_L1,university_level,age,gender,gender_other,try-out_answer_L2,try-out_answer_L1,beach1_answer_L2,beach1_answer_L1,street1_answer_L2,street1_answer_L1,farm1_answer_L2,farm1_answer_L1,beach2_answer_L2,beach2_answer_L1,street2_answer_L2,street2_answer_L1,farm2_answer_L2,farm2_answer_L1,park1_answer_L2,park1_answer_L1,park2_answer_L2,park2_answer_L1
"{""labjs_version"":""20.2.4"",""labjs_build"":{""flavor"":""production"",""commit"":""f5b4a49f956347addd546a832a3327688c2c0fef""},""location"":""https://open-lab.online/test/klassikaal_3/65673730fa275e2b7bdedd7a"",""userAgent"":""Mozilla/5.0 (Windows NT 10.0; Win64; x64) AppleWebKit/537.36 (KHTML, like Gecko) Chrome/119.0.0.0 Safari/537.36"",""platform"":""Win32"",""language"":""nl-NL"",""locale"":""nl"",""timeZone"":""Europe/Brussels"",""timezoneOffset"":-60,""screen_width"":1366,""screen_height"":768,""scroll_width"":1366,""scroll_height"":585,""window_innerWidth"":1366,""window_innerHeight"":633,""devicePixelRatio"":1}",ID,html.Page,0,2,,form submission,4477.687,4548.399999976158,4488.346,4538.313,9016,9017.100000023842,2023-11-29T13:07:00.728Z,9033.968,ywdc614XR_,full,klassikaal_3,652fe10cdc68ac1c61cf9cec,participant,Tine,246458,,,,,,,,,,,,,,,,,,,,,,,
,language,html.Page,1,,,form submission,13509.931999976157,9017.899999976158,9000.908,9033.968,22543.899999976158,22544.399999976158,2023-11-29T13:07:14.255Z,22554.072,ywdc614XR_,full,klassikaal_3,652fe10cdc68ac1c61cf9cec,participant,Tine,,Nederlands,BA,,,,,,,,,,,,,,,,,,,,,
,age-gender,html.Page,2,,,form submission,7580.528000023842,22544.799999952316,22537.659,22554.072,30134.600000023842,30135.199999928474,2023-11-29T13:07:21.846Z,30146.736,ywdc614XR_,full,klassikaal_3,652fe10cdc68ac1c61cf9cec,participant,Tine,,,,19,v,,,,,,,,,,,,,,,,,,,
,prepare,html.Page,3_0,,,form submission,97547.56399995231,30135.600000023842,30130.221,30146.736,127694.29999995232,127694.89999997616,2023-11-29T13:08:59.406Z,127700.972,ywdc614XR_,full,klassikaal_3,652fe10cdc68ac1c61cf9cec,participant,Tine,,,,,,,,,,,,,,,,,,,,,,,,
,try-out-image,html.Page,3_1,,,form submission,7430.72799992848,127695.19999992847,127684.315,127700.972,135131.69999992847,135132.29999995232,2023-11-29T13:09:06.843Z,135143.812,ywdc614XR_,full,klassikaal_3,652fe10cdc68ac1c61cf9cec,participant,Tine,,,,,,,twee eenden,,,,,,,,,,,,,,,,,
,answer,html.Page,3_2,,,form submission,36754.88799992847,135132.60000002384,135127.314,135143.812,171898.69999992847,171899.19999992847,2023-11-29T13:09:43.610Z,171907.835,ywdc614XR_,full,klassikaal_3,652fe10cdc68ac1c61cf9cec,participant,Tine,,,,,,,,,,,,,,,,,,,,,,,,
,try-out,flow.Sequence,3,,,completion,141751.96399992847,30135.5,30130.221,30146.736,171898.69999992847,171902.10000002384,2023-11-29T13:09:43.613Z,171907.835,ywdc614XR_,full,klassikaal_3,652fe10cdc68ac1c61cf9cec,participant,Tine,,,,,,,,,,,,,,,,,,,,,,,,
,prepare,html.Page,4_0,,,form submission,1549.3649999284826,171902.29999995232,171891.306,171907.835,173457.19999992847,173457.60000002384,2023-11-29T13:09:45.168Z,173472.805,ywdc614XR_,full,klassikaal_3,652fe10cdc68ac1c61cf9cec,participant,Tine,,,,,,,,,,,,,,,,,,,,,,,,
,beach1-image,html.Page,4_1,,,form submission,6407.695000000007,173458,173456.487,173472.805,179880.5,179881.10000002384,2023-11-29T13:09:51.592Z,179883.133,ywdc614XR_,full,klassikaal_3,652fe10cdc68ac1c61cf9cec,participant,Tine,,,,,,,,,de vishengel,,,,,,,,,,,,,,,
,answer,html.Page,4_2,,,form submission,40974.96700002384,179881.5,179866.682,179883.133,220858.10000002384,220858.69999992847,2023-11-29T13:10:32.570Z,220859.686,ywdc614XR_,full,klassikaal_3,652fe10cdc68ac1c61cf9cec,participant,Tine,,,,,,,,,,,,,,,,,,,,,,,,
,beach1,flow.Sequence,4,,,completion,48950.26500002385,171902.19999992847,171891.306,171907.835,220858.10000002384,220859.19999992847,2023-11-29T13:10:32.571Z,220859.686,ywdc614XR_,full,klassikaal_3,652fe10cdc68ac1c61cf9cec,participant,Tine,,,,,,,,,,,,,,,,,,,,,,,,
,prepare,html.Page,5_0,,,form submission,988.9140000238549,220859.60000002384,220843.281,220859.686,221848.60000002384,221849.10000002384,2023-11-29T13:10:33.561Z,221858.724,ywdc614XR_,full,klassikaal_3,652fe10cdc68ac1c61cf9cec,participant,Tine,,,,,,,,,,,,,,,,,,,,,,,,
,street1-image,html.Page,5_1,,,form submission,14557.17599997617,221849.39999997616,221842.368,221858.724,236415.89999997616,236416.60000002384,2023-11-29T13:10:48.128Z,236427.775,ywdc614XR_,full,klassikaal_3,652fe10cdc68ac1c61cf9cec,participant,Tine,,,,,,,,,,,de luifel met witte en rode strepen,,,,,,,,,,,,,
,answer,html.Page,5_2,,,form submission,44502.725000000006,236416.79999995232,236411.372,236427.775,280930.5,280931.10000002384,2023-11-29T13:11:32.641Z,280934.163,ywdc614XR_,full,klassikaal_3,652fe10cdc68ac1c61cf9cec,participant,Tine,,,,,,,,,,,,,,,,,,,,,,,,
,street1,flow.Sequence,5,,,completion,60070.81400000001,220859.5,220843.281,220859.686,280930.5,280931.39999997616,2023-11-29T13:11:32.642Z,280934.163,ywdc614XR_,full,klassikaal_3,652fe10cdc68ac1c61cf9cec,participant,Tine,,,,,,,,,,,,,,,,,,,,,,,,
,prepare,html.Page,6_0,,,form submission,1273.4370000238414,280931.6999999285,280917.503,280934.163,282207.60000002384,282208,2023-11-29T13:11:33.918Z,282216.247,ywdc614XR_,full,klassikaal_3,652fe10cdc68ac1c61cf9cec,participant,Tine,,,,,,,,,,,,,,,,,,,,,,,,
,farm1-image,html.Page,6_1,,,form submission,8439.353000023868,282208.2999999523,282199.925,282216.247,290655.60000002384,290656,2023-11-29T13:11:42.366Z,290657.981,ywdc614XR_,full,klassikaal_3,652fe10cdc68ac1c61cf9cec,participant,Tine,,,,,,,,,,,,,de omheining,,,,,,,,,,,
,answer,html.Page,6_2,,,form submission,2331.619000023813,290656.2999999523,290641.373,290657.981,292989.60000002384,292989.89999997616,2023-11-29T13:11:44.700Z,293005.951,ywdc614XR_,full,klassikaal_3,652fe10cdc68ac1c61cf9cec,participant,Tine,,,,,,,,,,,,,,,,,,,,,,,,
,farm1,flow.Sequence,6,,,completion,12055.437000023841,280931.60000002384,280917.503,280934.163,292989.60000002384,292990.2999999523,2023-11-29T13:11:44.701Z,293005.951,ywdc614XR_,full,klassikaal_3,652fe10cdc68ac1c61cf9cec,participant,Tine,,,,,,,,,,,,,,,,,,,,,,,,
,prepare,html.Page,7_0,,,form submission,37879.24899992847,292990.60000002384,292972.662,293005.951,330885.1999999285,330885.6999999285,2023-11-29T13:12:22.596Z,330906.772,ywdc614XR_,full,klassikaal_3,652fe10cdc68ac1c61cf9cec,participant,Tine,,,,,,,,,,,,,,,,,,,,,,,,
,beach2-image,html.Page,7_1,,,form submission,6587.927999928477,330885.89999997616,330868.864,330906.772,337494.6999999285,337495.1999999285,2023-11-29T13:12:29.206Z,337495.398,ywdc614XR_,full,klassikaal_3,652fe10cdc68ac1c61cf9cec,participant,Tine,,,,,,,,,,,,,,,de twee duwende mannen,,,,,,,,,
,answer,html.Page,7_2,,,form submission,2778.1020000000135,337495.39999997616,337479.052,337495.398,340273.5,340273.89999997616,2023-11-29T13:12:31.984Z,340276.045,ywdc614XR_,full,klassikaal_3,652fe10cdc68ac1c61cf9cec,participant,Tine,,,,,,,,,,,,,,,,,,,,,,,,
,beach2,flow.Sequence,7,,,completion,47267.549,292990.5,292972.662,293005.951,340273.5,340274.2999999523,2023-11-29T13:12:31.985Z,340276.045,ywdc614XR_,full,klassikaal_3,652fe10cdc68ac1c61cf9cec,participant,Tine,,,,,,,,,,,,,,,,,,,,,,,,
,prepare,html.Page,8_0,,,form submission,50248.25499995233,340274.5,340259.664,340276.045,390524.2999999523,390524.6999999285,2023-11-29T13:13:22.236Z,390526.797,ywdc614XR_,full,klassikaal_3,652fe10cdc68ac1c61cf9cec,participant,Tine,,,,,,,,,,,,,,,,,,,,,,,,
,street2-image,html.Page,8_1,,,form submission,8195.20299999998,390524.89999997616,390510.297,390526.797,398722,398722.5,2023-11-29T13:13:30.434Z,398735.352,ywdc614XR_,full,klassikaal_3,652fe10cdc68ac1c61cf9cec,participant,Tine,,,,,,,,,,,,,,,,,de strik van de ene beer,,,,,,,
,answer,html.Page,8_2,,,form submission,1588.0479999761446,398723,398719.049,398735.352,400323.39999997616,400323.6999999285,2023-11-29T13:13:32.035Z,400334.137,ywdc614XR_,full,klassikaal_3,652fe10cdc68ac1c61cf9cec,participant,Tine,,,,,,,,,,,,,,,,,,,,,,,,
,street2,flow.Sequence,8,,,completion,60047.354999976174,340274.39999997616,340259.664,340276.045,400323.39999997616,400324.10000002384,2023-11-29T13:13:32.036Z,400334.137,ywdc614XR_,full,klassikaal_3,652fe10cdc68ac1c61cf9cec,participant,Tine,,,,,,,,,,,,,,,,,,,,,,,,
,prepare,html.Page,9_0,,,form submission,41798.66299995233,400324.2999999523,400317.343,400334.137,442132.7999999523,442133.1999999285,2023-11-29T13:14:13.844Z,442142.829,ywdc614XR_,full,klassikaal_3,652fe10cdc68ac1c61cf9cec,participant,Tine,,,,,,,,,,,,,,,,,,,,,,,,
,farm2-image,html.Page,9_1,,,form submission,7065.170999999973,442133.39999997616,442126.516,442142.829,449208,449208.5,2023-11-29T13:14:20.920Z,449219.22,ywdc614XR_,full,klassikaal_3,652fe10cdc68ac1c61cf9cec,participant,Tine,,,,,,,,,,,,,,,,,,,de imker is niet in paniek,,,,,
,answer,html.Page,9_2,,,form submission,1965.0799999523442,449208.6999999285,449202.973,449219.22,451184.2999999523,451184.6999999285,2023-11-29T13:14:22.896Z,451201.003,ywdc614XR_,full,klassikaal_3,652fe10cdc68ac1c61cf9cec,participant,Tine,,,,,,,,,,,,,,,,,,,,,,,,
,farm2,flow.Sequence,9,,,completion,50850.16299995233,400324.2999999523,400317.343,400334.137,451184.2999999523,451185.10000002384,2023-11-29T13:14:22.896Z,451201.003,ywdc614XR_,full,klassikaal_3,652fe10cdc68ac1c61cf9cec,participant,Tine,,,,,,,,,,,,,,,,,,,,,,,,
,prepare,html.Page,10_0,,,form submission,42940.496999999974,451185.2999999523,451167.591,451201.003,494141.5,494142,2023-11-29T13:15:05.849Z,494162.912,ywdc614XR_,full,klassikaal_3,652fe10cdc68ac1c61cf9cec,participant,Tine,,,,,,,,,,,,,,,,,,,,,,,,
,park1-image,html.Page,10_1,,,form submission,3890.987999976147,494142.1999999285,494125.532,494162.912,498053.89999997616,498054.39999997616,2023-11-29T13:15:09.762Z,498054.767,ywdc614XR_,full,klassikaal_3,652fe10cdc68ac1c61cf9cec,participant,Tine,,,,,,,,,,,,,,,,,,,,,het kind,,,
,answer,html.Page,10_2,,,form submission,6999.132999976166,498054.6999999285,498038.379,498054.767,505053.89999997616,505054.2999999523,2023-11-29T13:15:16.762Z,505064.527,ywdc614XR_,full,klassikaal_3,652fe10cdc68ac1c61cf9cec,participant,Tine,,,,,,,,,,,,,,,,,,,,,,,,
,park1,flow.Sequence,10,,,completion,53852.89699997613,451185.2999999523,451167.591,451201.003,505053.89999997616,505054.60000002384,2023-11-29T13:15:16.762Z,505064.527,ywdc614XR_,full,klassikaal_3,652fe10cdc68ac1c61cf9cec,participant,Tine,,,,,,,,,,,,,,,,,,,,,,,,
,prepare,html.Page,11_0,,,form submission,51213.57300002384,505054.7999999523,505048.157,505064.527,556278.1000000238,556278.6999999285,2023-11-29T13:16:07.991Z,556280.94,ywdc614XR_,full,klassikaal_3,652fe10cdc68ac1c61cf9cec,participant,Tine,,,,,,,,,,,,,,,,,,,,,,,,
,park2-image,html.Page,11_1,,,form submission,9831.160000023898,556279,556264.583,556280.94,566112.1000000238,566112.6000000238,2023-11-29T13:16:17.825Z,566121.521,ywdc614XR_,full,klassikaal_3,652fe10cdc68ac1c61cf9cec,participant,Tine,,,,,,,,,,,,,,,,,,,,,,,de bloembak met witte bloemen,
,answer,html.Page,11_2,,,form submission,2899.7789999523666,566112.8999999762,566104.977,566121.521,569021.2999999523,569021.7999999523,2023-11-29T13:16:20.734Z,569035.084,ywdc614XR_,full,klassikaal_3,652fe10cdc68ac1c61cf9cec,participant,Tine,,,,,,,,,,,,,,,,,,,,,,,,
,park2,flow.Sequence,11,,,completion,63956.772999952314,505054.6999999285,505048.157,505064.527,569021.2999999523,569022.2999999523,2023-11-29T13:16:20.735Z,569035.084,ywdc614XR_,full,klassikaal_3,652fe10cdc68ac1c61cf9cec,participant,Tine,,,,,,,,,,,,,,,,,,,,,,,,
,bedankt,html.Page,12,,,timeout,2997.4899999999907,569022.5,569018.877,569035.084,572015.614,572017.1999999285,2023-11-29T13:16:23.730Z,572032.574,ywdc614XR_,full,klassikaal_3,652fe10cdc68ac1c61cf9cec,participant,Tine,,,,,,,,,,,,,,,,,,,,,,,,
,root,flow.Sequence,,,,completion,567477.301,4548.299999952316,4488.346,4538.313,572015.614,572017.6000000238,2023-11-29T13:16:23.730Z,572032.574,ywdc614XR_,full,klassikaal_3,652fe10cdc68ac1c61cf9cec,participant,Tine,,,,,,,,,,,,,,,,,,,,,,,,