meta,sender,sender_type,sender_id,Order,,ended_on,duration,time_run,time_render,time_show,time_end,time_commit,timestamp,time_switch,openLabId,type,task,project,status,code,confirmationCode,participant_L1,university_level,age,gender,gender_other,try-out_answer_L2,try-out_answer_L1,beach1_answer_L2,beach1_answer_L1,street1_answer_L2,street1_answer_L1,farm1_answer_L2,farm1_answer_L1,beach2_answer_L2,beach2_answer_L1,street2_answer_L2,street2_answer_L1,farm2_answer_L2,farm2_answer_L1,park1_answer_L2,park1_answer_L1,park2_answer_L2,park2_answer_L1
"{""labjs_version"":""20.2.4"",""labjs_build"":{""flavor"":""production"",""commit"":""f5b4a49f956347addd546a832a3327688c2c0fef""},""location"":""https://open-lab.online/test/klassikaal_3/6567376afa275e2b7bdedd98"",""userAgent"":""Mozilla/5.0 (Windows NT 10.0; Win64; x64) AppleWebKit/537.36 (KHTML, like Gecko) Chrome/119.0.0.0 Safari/537.36"",""platform"":""Win32"",""language"":""nl-NL"",""locale"":""nl"",""timeZone"":""Europe/Brussels"",""timezoneOffset"":-60,""screen_width"":1536,""screen_height"":864,""scroll_width"":1536,""scroll_height"":706,""window_innerWidth"":1536,""window_innerHeight"":754,""devicePixelRatio"":1.25}",ID,html.Page,0,2,,form submission,6420.085000095368,6356.5,6263.822,6363.815,12783.900000095367,12784.5,2023-11-29T13:07:04.213Z,12812.915,kDGgNQ3VSK,full,klassikaal_3,652fe10cdc68ac1c61cf9cec,participant,marie,135322,,,,,,,,,,,,,,,,,,,,,,,
,language,html.Page,1,,,form submission,14357.884999952315,12785,12796.251,12812.915,27170.799999952316,27171.599999904633,2023-11-29T13:07:18.600Z,27177.784,kDGgNQ3VSK,full,klassikaal_3,652fe10cdc68ac1c61cf9cec,participant,marie,,Nederlands,BA,,,,,,,,,,,,,,,,,,,,,
,age-gender,html.Page,2,,,form submission,7325.416000047684,27172.200000047684,27161.051,27177.784,34503.200000047684,34503.799999952316,2023-11-29T13:07:25.932Z,34510.09,kDGgNQ3VSK,full,klassikaal_3,652fe10cdc68ac1c61cf9cec,participant,marie,,,,19,v,,,,,,,,,,,,,,,,,,,
,prepare,html.Page,3_0,,,form submission,94617.11000004769,34504.200000047684,34493.609,34510.09,129127.20000004768,129127.70000004768,2023-11-29T13:09:00.555Z,129131.058,kDGgNQ3VSK,full,klassikaal_3,652fe10cdc68ac1c61cf9cec,participant,marie,,,,,,,,,,,,,,,,,,,,,,,,
,try-out-image,html.Page,3_1,,,form submission,7533.041999904628,129127.90000009537,129114.31,129131.058,136664.09999990463,136664.79999995232,2023-11-29T13:09:08.092Z,136663.511,kDGgNQ3VSK,full,klassikaal_3,652fe10cdc68ac1c61cf9cec,participant,marie,,,,,,,twee eenden,,,,,,,,,,,,,,,,,
,answer,html.Page,3_2,,,form submission,37223.489,136665.09999990463,136646.683,136663.511,173887,173887.5,2023-11-29T13:09:45.315Z,173891.891,kDGgNQ3VSK,full,klassikaal_3,652fe10cdc68ac1c61cf9cec,participant,marie,,,,,,,,,,,,,,,,,,,,,,,,
,try-out,flow.Sequence,3,,,completion,139376.91,34504.09999990463,34493.609,34510.09,173887,173891,2023-11-29T13:09:45.318Z,173891.891,kDGgNQ3VSK,full,klassikaal_3,652fe10cdc68ac1c61cf9cec,participant,marie,,,,,,,,,,,,,,,,,,,,,,,,
,prepare,html.Page,4_0,,,form submission,1270.2089999046293,173891.29999995232,173874.986,173891.891,175162.09999990463,175162.59999990463,2023-11-29T13:09:46.590Z,175174.591,kDGgNQ3VSK,full,klassikaal_3,652fe10cdc68ac1c61cf9cec,participant,marie,,,,,,,,,,,,,,,,,,,,,,,,
,beach1-image,html.Page,4_1,,,form submission,6605.008999904647,175162.70000004768,175157.95,175174.591,181779.59999990463,181780.70000004768,2023-11-29T13:09:53.208Z,181791.335,kDGgNQ3VSK,full,klassikaal_3,652fe10cdc68ac1c61cf9cec,participant,marie,,,,,,,,,vislijn,,,,,,,,,,,,,,,
,answer,html.Page,4_2,,,form submission,37239.16500000001,181781,181773.916,181791.335,219030.5,219031,2023-11-29T13:10:30.459Z,219052.338,kDGgNQ3VSK,full,klassikaal_3,652fe10cdc68ac1c61cf9cec,participant,marie,,,,,,,,,,,,,,,,,,,,,,,,
,beach1,flow.Sequence,4,,,completion,45138.609,173891.09999990463,173874.986,173891.891,219030.5,219031.5,2023-11-29T13:10:30.460Z,219052.338,kDGgNQ3VSK,full,klassikaal_3,652fe10cdc68ac1c61cf9cec,participant,marie,,,,,,,,,,,,,,,,,,,,,,,,
,prepare,html.Page,5_0,,,form submission,1695.4619999523275,219031.70000004768,219035.76,219052.338,220747.79999995232,220748.20000004768,2023-11-29T13:10:32.176Z,220751.922,kDGgNQ3VSK,full,klassikaal_3,652fe10cdc68ac1c61cf9cec,participant,marie,,,,,,,,,,,,,,,,,,,,,,,,
,street1-image,html.Page,5_1,,,form submission,6195.778000047692,220748.5,220735.453,220751.922,226947.70000004768,226949,2023-11-29T13:10:38.377Z,226951.389,kDGgNQ3VSK,full,klassikaal_3,652fe10cdc68ac1c61cf9cec,participant,marie,,,,,,,,,,,luifel,,,,,,,,,,,,,
,answer,html.Page,5_2,,,form submission,50980.31100004769,226949.29999995232,226934.334,226951.389,277931.7000000477,277933,2023-11-29T13:11:29.360Z,277944.344,kDGgNQ3VSK,full,klassikaal_3,652fe10cdc68ac1c61cf9cec,participant,marie,,,,,,,,,,,,,,,,,,,,,,,,
,street1,flow.Sequence,5,,,completion,58879.362000047695,219031.59999990463,219035.76,219052.338,277931.7000000477,277933.2999999523,2023-11-29T13:11:29.360Z,277944.344,kDGgNQ3VSK,full,klassikaal_3,652fe10cdc68ac1c61cf9cec,participant,marie,,,,,,,,,,,,,,,,,,,,,,,,
,prepare,html.Page,6_0,,,form submission,1107.2559999046498,277933.5,277927.526,277944.344,279051.59999990463,279052.09999990463,2023-11-29T13:11:30.479Z,279061.062,kDGgNQ3VSK,full,klassikaal_3,652fe10cdc68ac1c61cf9cec,participant,marie,,,,,,,,,,,,,,,,,,,,,,,,
,farm1-image,html.Page,6_1,,,form submission,11178.73799995234,279052.40000009537,279043.983,279061.062,290239.7999999523,290240.2000000477,2023-11-29T13:11:41.667Z,290242.666,kDGgNQ3VSK,full,klassikaal_3,652fe10cdc68ac1c61cf9cec,participant,marie,,,,,,,,,,,,,kettingzaag,,,,,,,,,,,
,answer,html.Page,6_2,,,form submission,39996.33399999997,290240.5,290226.078,290242.666,330239,330239.5,2023-11-29T13:12:21.666Z,330253.904,kDGgNQ3VSK,full,klassikaal_3,652fe10cdc68ac1c61cf9cec,participant,marie,,,,,,,,,,,,,,,,,,,,,,,,
,farm1,flow.Sequence,6,,,completion,52294.65600000002,277933.5,277927.526,277944.344,330239,330239.7000000477,2023-11-29T13:12:21.667Z,330253.904,kDGgNQ3VSK,full,klassikaal_3,652fe10cdc68ac1c61cf9cec,participant,marie,,,,,,,,,,,,,,,,,,,,,,,,
,prepare,html.Page,7_0,,,form submission,597.5960000000196,330239.90000009537,330237.855,330253.904,330851.5,330851.7999999523,2023-11-29T13:12:22.279Z,330854.393,kDGgNQ3VSK,full,klassikaal_3,652fe10cdc68ac1c61cf9cec,participant,marie,,,,,,,,,,,,,,,,,,,,,,,,
,beach2-image,html.Page,7_1,,,form submission,18893.20699990465,330851.90000009537,330837.495,330854.393,349747.59999990463,349747.90000009537,2023-11-29T13:12:41.176Z,349767.926,kDGgNQ3VSK,full,klassikaal_3,652fe10cdc68ac1c61cf9cec,participant,marie,,,,,,,,,,,,,,,er is maar 1 man,,,,,,,,,
,answer,html.Page,7_2,,,form submission,34181.37399995234,349748.2000000477,349751.344,349767.926,383949.2999999523,383950,2023-11-29T13:13:15.378Z,383963.61,kDGgNQ3VSK,full,klassikaal_3,652fe10cdc68ac1c61cf9cec,participant,marie,,,,,,,,,,,,,,,,,,,,,,,,
,beach2,flow.Sequence,7,,,completion,53695.395999952336,330239.90000009537,330237.855,330253.904,383949.2999999523,383950.59999990463,2023-11-29T13:13:15.378Z,383963.61,kDGgNQ3VSK,full,klassikaal_3,652fe10cdc68ac1c61cf9cec,participant,marie,,,,,,,,,,,,,,,,,,,,,,,,
,prepare,html.Page,8_0,,,form submission,1386.390000000014,383951,383947.023,383963.61,385350,385350.2999999523,2023-11-29T13:13:16.778Z,385363.504,kDGgNQ3VSK,full,klassikaal_3,652fe10cdc68ac1c61cf9cec,participant,marie,,,,,,,,,,,,,,,,,,,,,,,,
,street2-image,html.Page,8_1,,,form submission,22333.595999904617,385350.5,385346.726,385363.504,407697.09999990463,407697.59999990463,2023-11-29T13:13:39.125Z,407710.202,kDGgNQ3VSK,full,klassikaal_3,652fe10cdc68ac1c61cf9cec,participant,marie,,,,,,,,,,,,,,,,,rode strik,,,,,,,
,answer,html.Page,8_2,,,form submission,33521.69800009538,407697.90000009537,407693.441,407710.202,441231.90000009537,441232.2000000477,2023-11-29T13:14:12.660Z,441240.405,kDGgNQ3VSK,full,klassikaal_3,652fe10cdc68ac1c61cf9cec,participant,marie,,,,,,,,,,,,,,,,,,,,,,,,
,street2,flow.Sequence,8,,,completion,57268.29000009538,383950.90000009537,383947.023,383963.61,441231.90000009537,441232.59999990463,2023-11-29T13:14:12.660Z,441240.405,kDGgNQ3VSK,full,klassikaal_3,652fe10cdc68ac1c61cf9cec,participant,marie,,,,,,,,,,,,,,,,,,,,,,,,
,prepare,html.Page,9_0,,,form submission,1189.9950000953395,441232.90000009537,441222.546,441240.405,442430.40000009537,442430.7999999523,2023-11-29T13:14:13.858Z,442439.219,kDGgNQ3VSK,full,klassikaal_3,652fe10cdc68ac1c61cf9cec,participant,marie,,,,,,,,,,,,,,,,,,,,,,,,
,farm2-image,html.Page,9_1,,,form submission,13452.681000095385,442430.90000009537,442422.148,442439.219,455891.90000009537,455892.2999999523,2023-11-29T13:14:27.320Z,455904.02,kDGgNQ3VSK,full,klassikaal_3,652fe10cdc68ac1c61cf9cec,participant,marie,,,,,,,,,,,,,,,,,,,imker is niet in paniek,,,,,
,answer,html.Page,9_2,,,form submission,15802.079999904614,455892.59999990463,455887.336,455904.02,471706.09999990463,471706.59999990463,2023-11-29T13:14:43.135Z,471718.58,kDGgNQ3VSK,full,klassikaal_3,652fe10cdc68ac1c61cf9cec,participant,marie,,,,,,,,,,,,,,,,,,,,,,,,
,farm2,flow.Sequence,9,,,completion,30465.694999904605,441232.7999999523,441222.546,441240.405,471706.09999990463,471706.7999999523,2023-11-29T13:14:43.135Z,471718.58,kDGgNQ3VSK,full,klassikaal_3,652fe10cdc68ac1c61cf9cec,participant,marie,,,,,,,,,,,,,,,,,,,,,,,,
,prepare,html.Page,10_0,,,form submission,19330.519999904616,471707,471701.772,471718.58,491049.09999990463,491049.40000009537,2023-11-29T13:15:02.478Z,491049.857,kDGgNQ3VSK,full,klassikaal_3,652fe10cdc68ac1c61cf9cec,participant,marie,,,,,,,,,,,,,,,,,,,,,,,,
,park1-image,html.Page,10_1,,,form submission,7693.343000047666,491049.7999999523,491032.678,491049.857,498743.2000000477,498743.5,2023-11-29T13:15:10.172Z,498748.028,kDGgNQ3VSK,full,klassikaal_3,652fe10cdc68ac1c61cf9cec,participant,marie,,,,,,,,,,,,,,,,,,,,,geen kind op fiets,,,
,answer,html.Page,10_2,,,form submission,29145.372000095376,498743.59999990463,498731.629,498748.028,527893.4000000954,527894.9000000954,2023-11-29T13:15:39.323Z,527911.443,kDGgNQ3VSK,full,klassikaal_3,652fe10cdc68ac1c61cf9cec,participant,marie,,,,,,,,,,,,,,,,,,,,,,,,
,park1,flow.Sequence,10,,,completion,56174.82000009535,471707,471701.772,471718.58,527893.4000000954,527895.5,2023-11-29T13:15:39.324Z,527911.443,kDGgNQ3VSK,full,klassikaal_3,652fe10cdc68ac1c61cf9cec,participant,marie,,,,,,,,,,,,,,,,,,,,,,,,
,prepare,html.Page,11_0,,,form submission,27522.856999952346,527896.2000000477,527894.373,527911.443,555434.2999999523,555434.9000000954,2023-11-29T13:16:06.863Z,555440.437,kDGgNQ3VSK,full,klassikaal_3,652fe10cdc68ac1c61cf9cec,participant,marie,,,,,,,,,,,,,,,,,,,,,,,,
,park2-image,html.Page,11_1,,,form submission,17779.362999952282,555435.2999999523,555423.765,555440.437,573219.7999999523,573220.2000000477,2023-11-29T13:16:24.648Z,573221.712,kDGgNQ3VSK,full,klassikaal_3,652fe10cdc68ac1c61cf9cec,participant,marie,,,,,,,,,,,,,,,,,,,,,,,maar 1 bloembak,
,answer,html.Page,11_2,,,form submission,7303.287999999942,573220.5,573205.018,573221.712,580525,580525.5,2023-11-29T13:16:31.954Z,580537.652,kDGgNQ3VSK,full,klassikaal_3,652fe10cdc68ac1c61cf9cec,participant,marie,,,,,,,,,,,,,,,,,,,,,,,,
,park2,flow.Sequence,11,,,completion,52613.55700000003,527896,527894.373,527911.443,580525,580525.9000000954,2023-11-29T13:16:31.954Z,580537.652,kDGgNQ3VSK,full,klassikaal_3,652fe10cdc68ac1c61cf9cec,participant,marie,,,,,,,,,,,,,,,,,,,,,,,,
,bedankt,html.Page,12,,,timeout,2999.3830000000307,580526.4000000954,580520.413,580537.652,583520.009,583523.0999999046,2023-11-29T13:16:34.951Z,583537.035,kDGgNQ3VSK,full,klassikaal_3,652fe10cdc68ac1c61cf9cec,participant,marie,,,,,,,,,,,,,,,,,,,,,,,,
,root,flow.Sequence,,,,completion,577156.194,6356,6263.822,6363.815,583520.009,583523.2999999523,2023-11-29T13:16:34.951Z,583537.035,kDGgNQ3VSK,full,klassikaal_3,652fe10cdc68ac1c61cf9cec,participant,marie,,,,,,,,,,,,,,,,,,,,,,,,